"Time (s)","Gyroscope x (rad/s)","Gyroscope y (rad/s)","Gyroscope z (rad/s)","Absolute (rad/s)"
5.083694000E-2,-4.527240526E-3,2.130466048E-3,1.331541280E-4,5.005249482E-3
5.337074200E-2,7.989247679E-4,4.260932095E-3,1.198387123E-3,4.497772204E-3
5.590292900E-2,2.929390874E-3,-2.130466048E-3,-9.320789250E-4,3.740185503E-3
5.843657500E-2,-2.396774245E-3,-4.260932095E-3,1.331541280E-4,4.890582698E-3
6.097417900E-2,2.929390874E-3,1.065233024E-3,1.331541280E-4,3.119901009E-3
6.350178300E-2,1.864157850E-3,-1.065233024E-3,3.328853287E-3,3.961195538E-3
6.603621100E-2,-3.462007269E-3,-2.130466048E-3,4.394086078E-3,5.986014732E-3
6.857027300E-2,-2.663082560E-4,1.065233024E-3,3.328853287E-3,3.505268276E-3
7.110220000E-2,7.989247679E-4,4.260932095E-3,1.331541280E-4,4.337228738E-3
7.363761700E-2,-2.663082560E-4,5.326164886E-3,1.198387123E-3,5.465810478E-3
7.617048100E-2,-2.396774245E-3,1.065233024E-3,1.198387123E-3,2.883640039E-3
7.870537700E-2,-2.396774245E-3,2.130466048E-3,2.263620263E-3,3.925224714E-3
8.123720000E-2,1.864157850E-3,-1.065233024E-3,1.198387123E-3,2.458848832E-3
8.377079400E-2,6.125089712E-3,-1.065233024E-3,-9.320789250E-4,6.286510678E-3
8.630428300E-2,5.059856921E-3,2.130466048E-3,2.263620263E-3,5.938435344E-3
8.884032500E-2,7.989247679E-4,3.195699072E-3,1.198387123E-3,3.505268183E-3
9.137329400E-2,7.989247679E-4,1.065233024E-3,-9.320789250E-4,1.625353285E-3
9.389970000E-2,2.929390874E-3,2.130466048E-3,2.263620263E-3,4.271322180E-3
9.643683600E-2,7.989247679E-4,1.065233024E-3,4.394086078E-3,4.591404430E-3
9.897157500E-2,-2.663082560E-4,-1.065233024E-3,1.198387123E-3,1.625353247E-3
1.015062630E-1,7.989247679E-4,-2.130466048E-3,1.331541280E-4,2.279231534E-3
1.040391270E-1,-2.663082560E-4,-1.065233024E-3,2.263620263E-3,2.515873243E-3
1.065717310E-1,2.929390874E-3,1.065233024E-3,-1.997311832E-3,3.702067914E-3
1.090994920E-1,-4.527240526E-3,2.130466048E-3,-3.062544856E-3,5.866342417E-3
1.116421480E-1,7.989247679E-4,2.130466048E-3,3.328853287E-3,4.032174422E-3
1.141762630E-1,7.989247679E-4,2.130466048E-3,2.263620263E-3,3.209539384E-3
1.167091270E-1,1.864157850E-3,2.130466048E-3,1.198387123E-3,3.074101782E-3
1.192425130E-1,7.989247679E-4,1.065233024E-3,-9.320789250E-4,1.625353285E-3
1.217722520E-1,-1.331541222E-3,2.130466048E-3,1.331541280E-4,2.515873134E-3
1.243069400E-1,7.989247679E-4,0.000000000E0,-9.320789250E-4,1.227620425E-3
1.268390230E-1,-2.396774245E-3,1.065233024E-3,3.328853287E-3,4.237984472E-3
1.293756380E-1,-1.331541222E-3,1.065233024E-3,1.331541280E-4,1.710395697E-3
1.319070440E-1,7.989247679E-4,1.065233024E-3,-1.997311832E-3,2.400470107E-3
1.344401170E-1,-2.396774245E-3,4.260932095E-3,3.328853287E-3,5.914501949E-3
1.369729810E-1,-2.663082560E-4,1.065233024E-3,1.198387123E-3,1.625353247E-3
1.395071480E-1,-2.396774245E-3,0.000000000E0,-9.320789250E-4,2.571633315E-3
1.420467310E-1,1.864157850E-3,2.130466048E-3,1.331541280E-4,2.834025422E-3
1.445778250E-1,-2.663082560E-4,4.260932095E-3,1.198387123E-3,4.434252373E-3
1.471067830E-1,-2.663082560E-4,0.000000000E0,1.331541280E-4,2.977416816E-4
1.496401170E-1,2.929390874E-3,-1.065233024E-3,1.331541280E-4,3.119901009E-3
1.521735020E-1,3.994623665E-3,4.260932095E-3,1.331541280E-4,5.842113536E-3
1.547074080E-1,-1.331541222E-3,1.065233024E-3,1.331541280E-4,1.710395697E-3
1.572449610E-1,-7.722939365E-3,0.000000000E0,-9.320789250E-4,7.778982167E-3
1.597797000E-1,1.864157850E-3,1.065233024E-3,1.331541280E-4,2.151170822E-3
1.622992830E-1,7.190322969E-3,1.065233024E-3,2.263620263E-3,7.613109909E-3
1.648401170E-1,1.864157850E-3,1.065233024E-3,3.328853287E-3,3.961195538E-3
1.673707940E-1,-1.331541222E-3,-1.065233024E-3,-1.997311832E-3,2.626209812E-3
1.699106380E-1,1.864157850E-3,2.130466048E-3,2.263620263E-3,3.624630569E-3
1.724420960E-1,1.864157850E-3,1.065233024E-3,1.198387123E-3,2.458848832E-3
1.749747000E-1,-2.396774245E-3,-1.065233024E-3,1.331541280E-4,2.626209855E-3
1.775075650E-1,-3.462007269E-3,0.000000000E0,1.331541280E-4,3.464566979E-3
1.800414710E-1,-1.331541222E-3,3.195699072E-3,-9.320789250E-4,3.585284606E-3
1.825765750E-1,7.989247679E-4,-1.065233024E-3,-1.997311832E-3,2.400470107E-3
1.851070960E-1,-3.462007269E-3,1.065233024E-3,1.331541280E-4,3.624630429E-3
1.876415230E-1,-1.331541222E-3,0.000000000E0,1.198387123E-3,1.791405515E-3
1.901741270E-1,-2.663082560E-4,-1.065233024E-3,1.198387123E-3,1.625353247E-3
1.927085020E-1,-3.462007269E-3,3.195699072E-3,1.331541280E-4,4.713355165E-3
1.952424080E-1,-2.663082560E-4,4.260932095E-3,2.263620263E-3,4.832229206E-3
1.977737110E-1,2.929390874E-3,2.130466048E-3,-9.320789250E-4,3.740185503E-3
2.003080860E-1,-5.592473317E-3,0.000000000E0,1.331541280E-4,5.594058261E-3
2.028446480E-1,1.864157850E-3,-2.130466048E-3,1.198387123E-3,3.074101782E-3
2.053790750E-1,7.989247679E-4,0.000000000E0,1.331541280E-4,8.099449404E-4
2.079118880E-1,-1.331541222E-3,1.065233024E-3,-9.320789250E-4,1.943320494E-3
2.104482420E-1,1.864157850E-3,1.065233024E-3,1.198387123E-3,2.458848832E-3
2.129778770E-1,1.864157850E-3,1.065233024E-3,1.331541280E-4,2.151170822E-3
2.155130860E-1,-2.663082560E-4,2.130466048E-3,1.331541280E-4,2.151170772E-3
2.180462110E-1,-2.396774245E-3,-2.130466048E-3,1.198387123E-3,3.423381962E-3
2.205787630E-1,-1.331541222E-3,-1.065233024E-3,1.198387123E-3,2.084191718E-3
2.231077210E-1,2.929390874E-3,-3.195699072E-3,1.331541280E-4,4.337228778E-3
2.256413670E-1,2.929390874E-3,0.000000000E0,-1.997311832E-3,3.545502143E-3
2.281750130E-1,1.864157850E-3,2.130466048E-3,1.331541280E-4,2.834025422E-3
2.307089190E-1,2.929390874E-3,-2.130466048E-3,1.198387123E-3,3.815278256E-3
2.332422520E-1,-2.663082560E-4,-2.130466048E-3,1.198387123E-3,2.458848788E-3
2.357782940E-1,2.929390874E-3,1.065233024E-3,2.263620263E-3,3.852275818E-3
2.383064190E-1,-1.331541222E-3,0.000000000E0,3.328853287E-3,3.585284679E-3
2.408392830E-1,-5.592473317E-3,-1.065233024E-3,1.331541280E-4,5.694577176E-3
2.433729290E-1,1.864157850E-3,-2.130466048E-3,2.263620263E-3,3.624630569E-3
2.459065750E-1,-1.331541222E-3,1.065233024E-3,4.394086078E-3,4.713355055E-3
2.484393880E-1,1.864157850E-3,4.260932095E-3,1.198387123E-3,4.802786536E-3
2.509760020E-1,1.864157850E-3,2.130466048E-3,1.331541280E-4,2.834025422E-3
2.535067310E-1,-3.462007269E-3,-1.065233024E-3,-9.320789250E-4,3.740185403E-3
2.560403250E-1,-2.663082560E-4,-2.130466048E-3,1.198387123E-3,2.458848788E-3
2.585739710E-1,2.929390874E-3,1.065233024E-3,-9.320789250E-4,3.253432558E-3
2.611086580E-1,-1.331541222E-3,0.000000000E0,1.198387123E-3,1.791405515E-3
2.636397000E-1,-1.331541222E-3,1.065233024E-3,1.331541280E-4,1.710395697E-3
2.661727210E-1,-2.663082560E-4,2.130466048E-3,-9.320789250E-4,2.340635980E-3
2.687072000E-1,5.059856921E-3,1.065233024E-3,-9.320789250E-4,5.254107401E-3
2.712405860E-1,1.864157850E-3,2.130466048E-3,2.263620263E-3,3.624630569E-3
2.737742310E-1,-2.663082560E-4,1.065233024E-3,2.263620263E-3,2.515873243E-3
2.763068880E-1,7.989247679E-4,-2.130466048E-3,-1.997311832E-3,3.027609770E-3
2.788410020E-1,2.929390874E-3,1.065233024E-3,1.331541280E-4,3.119901009E-3
2.813735540E-1,7.989247679E-4,2.130466048E-3,1.198387123E-3,2.571633345E-3
2.839087630E-1,7.989247679E-4,0.000000000E0,3.328853287E-3,3.423382098E-3
2.864415750E-1,-1.331541222E-3,0.000000000E0,3.328853287E-3,3.585284679E-3
2.889755330E-1,-1.331541222E-3,-3.195699072E-3,1.198387123E-3,3.663553777E-3
2.915097520E-1,7.989247679E-4,0.000000000E0,1.198387123E-3,1.440282084E-3
2.940404810E-1,-2.396774245E-3,2.130466048E-3,-9.320789250E-4,3.339488507E-3
2.965748560E-1,-3.462007269E-3,0.000000000E0,-1.997311832E-3,3.996842365E-3
2.991087110E-1,1.864157850E-3,3.195699072E-3,1.198387123E-3,3.888921282E-3
3.016424080E-1,2.929390874E-3,2.130466048E-3,2.263620263E-3,4.271322180E-3
3.041744400E-1,7.989247679E-4,-1.065233024E-3,-9.320789250E-4,1.625353285E-3
3.067082940E-1,-4.527240526E-3,0.000000000E0,2.263620263E-3,5.061608783E-3
3.092321480E-1,-2.663082560E-4,-1.065233024E-3,1.198387123E-3,1.625353247E-3
3.117753250E-1,1.864157850E-3,0.000000000E0,1.331541280E-4,1.868907304E-3
3.143079810E-1,-2.663082560E-4,1.065233024E-3,-1.997311832E-3,2.279231458E-3
3.168424080E-1,-2.396774245E-3,4.260932095E-3,2.263620263E-3,5.387396941E-3
3.193755330E-1,-1.331541222E-3,5.326164886E-3,1.198387123E-3,5.619356379E-3
3.219088670E-1,7.989247679E-4,3.195699072E-3,1.198387123E-3,3.505268183E-3
3.244412630E-1,7.989247679E-4,3.195699072E-3,-9.320789250E-4,3.423382021E-3
3.269753250E-1,1.864157850E-3,1.065233024E-3,-1.997311832E-3,2.932415462E-3
3.295081900E-1,-2.663082560E-4,1.065233024E-3,1.198387123E-3,1.625353247E-3
3.320453250E-1,-2.663082560E-4,1.065233024E-3,4.394086078E-3,4.529197936E-3
3.345770440E-1,2.929390874E-3,2.130466048E-3,3.328853287E-3,4.919500043E-3
3.371088670E-1,7.989247679E-4,-1.065233024E-3,1.331541280E-4,1.338182425E-3
3.396422520E-1,-1.331541222E-3,0.000000000E0,-1.997311832E-3,2.400470075E-3
3.421751170E-1,-2.396774245E-3,2.130466048E-3,-9.320789250E-4,3.339488507E-3
3.447095440E-1,-2.663082560E-4,-1.065233024E-3,1.331541280E-4,1.106061257E-3
3.472418360E-1,7.989247679E-4,1.065233024E-3,1.198387123E-3,1.791405559E-3
3.497755330E-1,-2.663082560E-4,2.130466048E-3,1.198387123E-3,2.458848788E-3
3.523094400E-1,7.989247679E-4,2.130466048E-3,1.331541280E-4,2.279231534E-3
3.548430330E-1,-1.331541222E-3,-1.065233024E-3,-1.997311832E-3,2.626209812E-3
3.573758980E-1,1.864157850E-3,3.195699072E-3,-9.320789250E-4,3.815278256E-3
3.599107940E-1,7.989247679E-4,1.065233024E-3,1.331541280E-4,1.338182425E-3
3.624372520E-1,1.864157850E-3,-1.065233024E-3,2.263620263E-3,3.119901053E-3
3.649768360E-1,-1.331541222E-3,1.065233024E-3,1.331541280E-4,1.710395697E-3
3.675351690E-1,7.989247679E-4,1.065233024E-3,2.263620263E-3,2.626209983E-3
3.700580860E-1,1.864157850E-3,3.195699072E-3,-9.320789250E-4,3.815278256E-3
3.725793360E-1,1.864157850E-3,2.130466048E-3,-3.062544856E-3,4.170509689E-3
3.750988670E-1,7.989247679E-4,6.391398143E-3,2.263620263E-3,6.827314824E-3
3.776486580E-1,-2.396774245E-3,3.195699072E-3,1.198387123E-3,4.170509685E-3
3.802012630E-1,1.864157850E-3,0.000000000E0,1.198387123E-3,2.216126392E-3
3.827336060E-1,7.989247679E-4,1.065233024E-3,2.263620263E-3,2.626209983E-3
3.852437630E-1,-2.396774245E-3,3.195699072E-3,1.198387123E-3,4.170509685E-3
3.878020960E-1,1.864157850E-3,0.000000000E0,1.331541280E-4,1.868907304E-3
3.903105330E-1,-1.331541222E-3,0.000000000E0,1.198387123E-3,1.791405515E-3
3.928680860E-1,-3.462007269E-3,2.130466048E-3,1.331541280E-4,4.067199274E-3
3.953764710E-1,-1.331541222E-3,1.065233024E-3,1.198387123E-3,2.084191718E-3
3.979355860E-1,5.059856921E-3,2.130466048E-3,1.198387123E-3,5.619356666E-3
4.004429810E-1,1.864157850E-3,5.326164886E-3,2.263620263E-3,6.080057038E-3
4.029647000E-1,-2.663082560E-4,1.065233024E-3,1.331541280E-4,1.106061257E-3
4.055152730E-1,-2.663082560E-4,1.065233024E-3,2.263620263E-3,2.515873243E-3
4.080689190E-1,-2.663082560E-4,2.130466048E-3,3.328853287E-3,3.961195511E-3
4.106014710E-1,-2.663082560E-4,1.065233024E-3,3.328853287E-3,3.505268276E-3
4.131178250E-1,7.989247679E-4,3.195699072E-3,1.331541280E-4,3.296741325E-3
4.156684500E-1,7.989247679E-4,0.000000000E0,1.198387123E-3,1.440282084E-3
4.181992310E-1,-2.663082560E-4,-2.130466048E-3,1.198387123E-3,2.458848788E-3
4.207147520E-1,1.864157850E-3,1.065233024E-3,1.331541280E-4,2.151170822E-3
4.232444400E-1,1.864157850E-3,-1.065233024E-3,1.198387123E-3,2.458848832E-3
4.258007420E-1,-2.663082560E-4,1.065233024E-3,4.394086078E-3,4.529197936E-3
4.283151170E-1,-2.663082560E-4,1.065233024E-3,2.263620263E-3,2.515873243E-3
4.308697520E-1,7.989247679E-4,4.260932095E-3,1.331541280E-4,4.337228738E-3
4.334018360E-1,-1.331541222E-3,3.195699072E-3,2.263620263E-3,4.136359665E-3
4.359117830E-1,7.989247679E-4,-2.130466048E-3,2.263620263E-3,3.209539384E-3
4.384691790E-1,-3.462007269E-3,1.065233024E-3,1.198387123E-3,3.815278158E-3
4.409802210E-1,-2.396774245E-3,1.065233024E-3,1.331541280E-4,2.626209855E-3
4.435356380E-1,-1.331541222E-3,1.065233024E-3,-9.320789250E-4,1.943320494E-3
4.460684500E-1,-4.527240526E-3,3.195699072E-3,-9.320789250E-4,5.619356765E-3
4.485771480E-1,-2.396774245E-3,2.130466048E-3,3.328853287E-3,4.622193913E-3
4.511367830E-1,-2.663082560E-4,-2.130466048E-3,1.331541280E-4,2.151170772E-3
4.536500650E-1,-2.663082560E-4,0.000000000E0,2.263620263E-3,2.279231621E-3
4.561780860E-1,-2.396774245E-3,-1.065233024E-3,2.263620263E-3,3.464567054E-3
4.587345440E-1,-2.396774245E-3,0.000000000E0,3.328853287E-3,4.101925278E-3
4.612451170E-1,1.864157850E-3,1.065233024E-3,1.331541280E-4,2.151170822E-3
4.637801170E-1,1.864157850E-3,2.130466048E-3,-9.320789250E-4,2.980392792E-3
4.663110540E-1,-1.331541222E-3,0.000000000E0,-9.320789250E-4,1.625353238E-3
4.688438670E-1,-2.663082560E-4,0.000000000E0,-9.320789250E-4,9.693767119E-4
4.713772520E-1,1.864157850E-3,1.065233024E-3,1.198387123E-3,2.458848832E-3
4.739122000E-1,-3.462007269E-3,2.130466048E-3,2.263620263E-3,4.652779450E-3
4.764435540E-1,-1.331541222E-3,3.195699072E-3,3.328853287E-3,4.802786565E-3
4.789789710E-1,-1.331541222E-3,1.065233024E-3,2.263620263E-3,2.834025426E-3
4.815123560E-1,-2.396774245E-3,-1.065233024E-3,1.198387123E-3,2.883640039E-3
4.840467830E-1,-3.462007269E-3,0.000000000E0,3.328853287E-3,4.802786539E-3
4.865801170E-1,-1.331541222E-3,1.065233024E-3,3.328853287E-3,3.740185507E-3
4.891124610E-1,-3.462007269E-3,0.000000000E0,3.328853287E-3,4.802786539E-3
4.916458980E-1,-2.663082560E-4,-1.065233024E-3,1.198387123E-3,1.625353247E-3
4.941816790E-1,-3.462007269E-3,2.130466048E-3,1.331541280E-4,4.067199274E-3
4.967118360E-1,-4.527240526E-3,3.195699072E-3,-9.320789250E-4,5.619356765E-3
4.992462630E-1,-2.663082560E-4,-1.065233024E-3,-1.997311832E-3,2.279231458E-3
5.017782940E-1,-5.592473317E-3,2.130466048E-3,1.331541280E-4,5.986014818E-3
5.043119400E-1,-2.396774245E-3,-1.065233024E-3,-9.320789250E-4,2.783526415E-3
5.068450650E-1,-1.331541222E-3,-1.065233024E-3,3.328853287E-3,3.740185507E-3
5.093781900E-1,-2.663082560E-4,0.000000000E0,3.328853287E-3,3.339488627E-3
5.119123560E-1,-2.396774245E-3,-2.130466048E-3,-9.320789250E-4,3.339488507E-3
5.144418360E-1,-2.663082560E-4,1.065233024E-3,-9.320789250E-4,1.440282127E-3
5.169775130E-1,6.125089712E-3,2.130466048E-3,1.331541280E-4,6.486396502E-3
5.195127210E-1,1.864157850E-3,3.195699072E-3,1.331541280E-4,3.702067945E-3
5.220458460E-1,-1.331541222E-3,0.000000000E0,-1.997311832E-3,2.400470075E-3
5.245789190E-1,-2.663082560E-4,-1.065233024E-3,1.198387123E-3,1.625353247E-3
5.271123040E-1,1.864157850E-3,0.000000000E0,1.198387123E-3,2.216126392E-3
5.296462630E-1,-1.331541222E-3,1.065233024E-3,-3.062544856E-3,3.505268095E-3
5.321785540E-1,7.989247679E-4,1.065233024E-3,-1.997311832E-3,2.400470107E-3
5.347135540E-1,1.864157850E-3,-2.130466048E-3,1.198387123E-3,3.074101782E-3
5.372455330E-1,7.989247679E-4,0.000000000E0,1.198387123E-3,1.440282084E-3
5.397791790E-1,7.989247679E-4,0.000000000E0,1.198387123E-3,1.440282084E-3
5.423117830E-1,7.989247679E-4,0.000000000E0,-1.997311832E-3,2.151170691E-3
5.448461580E-1,-2.663082560E-4,-2.130466048E-3,-3.062544856E-3,3.740185378E-3
5.473782420E-1,-2.396774245E-3,1.065233024E-3,-9.320789250E-4,2.783526415E-3
5.499134500E-1,2.929390874E-3,-2.130466048E-3,1.198387123E-3,3.815278256E-3
5.524457940E-1,-1.331541222E-3,-1.065233024E-3,1.198387123E-3,2.084191718E-3
5.549794920E-1,-1.331541222E-3,1.065233024E-3,1.331541280E-4,1.710395697E-3
5.575126170E-1,1.864157850E-3,-1.065233024E-3,2.263620263E-3,3.119901053E-3
5.600465230E-1,-2.663082560E-4,-1.065233024E-3,1.331541280E-4,1.106061257E-3
5.625798560E-1,-5.592473317E-3,1.065233024E-3,1.331541280E-4,5.694577176E-3
5.651070960E-1,-2.663082560E-4,1.065233024E-3,1.331541280E-4,1.106061257E-3
5.676468880E-1,2.929390874E-3,1.065233024E-3,-9.320789250E-4,3.253432558E-3
5.701792830E-1,-2.663082560E-4,0.000000000E0,1.198387123E-3,1.227620374E-3
5.727125650E-1,-2.396774245E-3,0.000000000E0,1.198387123E-3,2.679675070E-3
5.752500130E-1,-2.663082560E-4,2.130466048E-3,1.331541280E-4,2.151170772E-3
5.777793360E-1,7.989247679E-4,4.260932095E-3,1.331541280E-4,4.337228738E-3
5.803121480E-1,-2.663082560E-4,1.065233024E-3,1.198387123E-3,1.625353247E-3
5.828468880E-1,7.989247679E-4,0.000000000E0,-9.320789250E-4,1.227620425E-3
5.853797000E-1,7.989247679E-4,3.195699072E-3,1.198387123E-3,3.505268183E-3
5.879133460E-1,-3.462007269E-3,3.195699072E-3,-9.320789250E-4,4.802786484E-3
5.904467310E-1,-2.663082560E-4,1.065233024E-3,-1.997311832E-3,2.279231458E-3
5.929796480E-1,1.864157850E-3,1.065233024E-3,-9.320789250E-4,2.340636026E-3
5.955127210E-1,1.864157850E-3,0.000000000E0,-9.320789250E-4,2.084191837E-3
5.980474080E-1,1.864157850E-3,0.000000000E0,1.198387123E-3,2.216126392E-3
6.006055330E-1,-2.663082560E-4,4.260932095E-3,1.198387123E-3,4.434252373E-3
6.031115750E-1,-4.527240526E-3,2.130466048E-3,4.394086078E-3,6.659037830E-3
6.056490750E-1,7.989247679E-4,1.065233024E-3,2.263620263E-3,2.626209983E-3
6.081801170E-1,7.989247679E-4,-1.065233024E-3,1.198387123E-3,1.791405559E-3
6.107197000E-1,-3.462007269E-3,2.130466048E-3,1.198387123E-3,4.237984380E-3
6.132367310E-1,-1.331541222E-3,-1.065233024E-3,2.263620263E-3,2.834025426E-3
6.157931380E-1,1.864157850E-3,0.000000000E0,4.394086078E-3,4.773162154E-3
6.183190230E-1,3.994623665E-3,-1.065233024E-3,3.328853287E-3,5.307824773E-3
6.208482420E-1,2.929390874E-3,-3.195699072E-3,1.331541280E-4,4.337228778E-3
6.233822520E-1,-2.663082560E-4,0.000000000E0,1.198387123E-3,1.227620374E-3
6.259192310E-1,-2.396774245E-3,2.130466048E-3,2.263620263E-3,3.925224714E-3
6.284494400E-1,-1.331541222E-3,2.130466048E-3,2.263620263E-3,3.381695477E-3
6.309815750E-1,-1.331541222E-3,0.000000000E0,1.198387123E-3,1.791405515E-3
6.335175130E-1,-2.663082560E-4,1.065233024E-3,1.198387123E-3,1.625353247E-3
6.360480330E-1,2.929390874E-3,0.000000000E0,3.328853287E-3,4.434252485E-3
6.385811580E-1,2.929390874E-3,2.130466048E-3,1.331541280E-4,3.624630532E-3
6.411153770E-1,7.989247679E-4,0.000000000E0,1.198387123E-3,1.440282084E-3
6.436481900E-1,1.864157850E-3,2.130466048E-3,-9.320789250E-4,2.980392792E-3
6.461816270E-1,-2.663082560E-4,5.326164886E-3,1.198387123E-3,5.465810478E-3
6.487149080E-1,-3.462007269E-3,1.065233024E-3,1.198387123E-3,3.815278158E-3
6.512495960E-1,-1.331541222E-3,1.065233024E-3,1.331541280E-4,1.710395697E-3
6.537816790E-1,7.989247679E-4,0.000000000E0,1.198387123E-3,1.440282084E-3
6.563172000E-1,7.989247679E-4,1.065233024E-3,2.263620263E-3,2.626209983E-3
6.588486580E-1,7.989247679E-4,0.000000000E0,2.263620263E-3,2.400470262E-3
6.613862630E-1,-2.663082560E-4,1.065233024E-3,1.331541280E-4,1.106061257E-3
6.639196480E-1,1.864157850E-3,2.130466048E-3,-9.320789250E-4,2.980392792E-3
6.664416790E-1,3.994623665E-3,1.065233024E-3,2.263620263E-3,4.713355102E-3
6.689871480E-1,1.864157850E-3,2.130466048E-3,1.331541280E-4,2.834025422E-3
6.715182420E-1,1.864157850E-3,3.195699072E-3,1.198387123E-3,3.888921282E-3
6.740515750E-1,-1.331541222E-3,4.260932095E-3,1.331541280E-4,4.466125207E-3
6.765836580E-1,-2.396774245E-3,2.130466048E-3,-9.320789250E-4,3.339488507E-3
6.791149610E-1,-2.396774245E-3,2.130466048E-3,1.331541280E-4,3.209539279E-3
6.816496480E-1,-1.331541222E-3,1.065233024E-3,-9.320789250E-4,1.943320494E-3
6.841830330E-1,-2.663082560E-4,2.130466048E-3,1.331541280E-4,2.151170772E-3
6.867161060E-1,-2.396774245E-3,1.065233024E-3,2.263620263E-3,3.464567054E-3
6.892500650E-1,-2.663082560E-4,3.195699072E-3,1.198387123E-3,3.423382003E-3
6.917820960E-1,-1.331541222E-3,1.065233024E-3,2.263620263E-3,2.834025426E-3
6.943165230E-1,1.864157850E-3,2.130466048E-3,1.198387123E-3,3.074101782E-3
6.968551170E-1,7.989247679E-4,3.195699072E-3,1.331541280E-4,3.296741325E-3
6.993824080E-1,-2.396774245E-3,1.065233024E-3,1.198387123E-3,2.883640039E-3
7.019165750E-1,3.994623665E-3,2.130466048E-3,3.328853287E-3,5.619356548E-3
7.044502730E-1,-2.663082560E-4,5.326164886E-3,1.198387123E-3,5.465810478E-3
7.069831900E-1,-2.663082560E-4,0.000000000E0,1.331541280E-4,2.977416816E-4
7.095154810E-1,-2.396774245E-3,-2.130466048E-3,3.328853287E-3,4.622193913E-3
7.120532420E-1,7.989247679E-4,0.000000000E0,1.198387123E-3,1.440282084E-3
7.145879290E-1,7.989247679E-4,0.000000000E0,-9.320789250E-4,1.227620425E-3
7.171151170E-1,-1.331541222E-3,1.065233024E-3,-1.997311832E-3,2.626209812E-3
7.196544400E-1,-1.331541222E-3,3.195699072E-3,1.198387123E-3,3.663553777E-3
7.221831380E-1,-2.663082560E-4,-1.065233024E-3,2.263620263E-3,2.515873243E-3
7.247165230E-1,1.864157850E-3,0.000000000E0,2.263620263E-3,2.932415589E-3
7.272514190E-1,1.864157850E-3,0.000000000E0,1.331541280E-4,1.868907304E-3
7.297861580E-1,-1.331541222E-3,1.065233024E-3,-9.320789250E-4,1.943320494E-3
7.323174080E-1,3.994623665E-3,3.195699072E-3,1.331541280E-4,5.117347047E-3
7.348505330E-1,3.994623665E-3,0.000000000E0,4.394086078E-3,5.938435036E-3
7.373850650E-1,7.989247679E-4,2.130466048E-3,2.263620263E-3,3.209539384E-3
7.399176170E-1,3.994623665E-3,3.195699072E-3,1.198387123E-3,5.254107201E-3
7.424473040E-1,-2.663082560E-4,1.065233024E-3,2.263620263E-3,2.515873243E-3
7.449843360E-1,-2.663082560E-4,-1.065233024E-3,3.328853287E-3,3.505268276E-3
7.475163670E-1,-1.331541222E-3,2.130466048E-3,-1.997311832E-3,3.209539244E-3
7.500505860E-1,-2.663082560E-4,2.130466048E-3,1.331541280E-4,2.151170772E-3
7.525833980E-1,2.929390874E-3,1.065233024E-3,1.331541280E-4,3.119901009E-3
7.551173040E-1,-1.331541222E-3,1.065233024E-3,1.198387123E-3,2.084191718E-3
7.576512110E-1,1.864157850E-3,3.195699072E-3,1.331541280E-4,3.702067945E-3
7.601840750E-1,1.864157850E-3,0.000000000E0,1.331541280E-4,1.868907304E-3
7.627219400E-1,-1.331541222E-3,-4.260932095E-3,1.331541280E-4,4.466125207E-3
7.652513150E-1,-2.396774245E-3,-2.130466048E-3,1.198387123E-3,3.423381962E-3
7.677815750E-1,7.989247679E-4,-1.065233024E-3,1.331541280E-4,1.338182425E-3
7.703180330E-1,-2.396774245E-3,1.065233024E-3,1.331541280E-4,2.626209855E-3
7.728504290E-1,-1.331541222E-3,3.195699072E-3,1.198387123E-3,3.663553777E-3
7.753827730E-1,-2.663082560E-4,-1.065233024E-3,1.198387123E-3,1.625353247E-3
7.779222520E-1,-2.663082560E-4,0.000000000E0,1.198387123E-3,1.227620374E-3
7.804502730E-1,1.864157850E-3,0.000000000E0,1.331541280E-4,1.868907304E-3
7.829815750E-1,7.989247679E-4,2.130466048E-3,1.331541280E-4,2.279231534E-3
7.855152210E-1,-2.396774245E-3,2.130466048E-3,1.331541280E-4,3.209539279E-3
7.880483460E-1,-1.331541222E-3,-1.065233024E-3,-9.320789250E-4,1.943320494E-3
7.905832940E-1,-1.331541222E-3,2.130466048E-3,1.331541280E-4,2.515873134E-3
7.931182420E-1,1.864157850E-3,1.065233024E-3,1.198387123E-3,2.458848832E-3
7.956513150E-1,1.864157850E-3,-1.065233024E-3,2.263620263E-3,3.119901053E-3
7.981833980E-1,-2.663082560E-4,-1.065233024E-3,3.328853287E-3,3.505268276E-3
8.007168360E-1,2.929390874E-3,2.130466048E-3,3.328853287E-3,4.919500043E-3
8.032499080E-1,-3.462007269E-3,-1.065233024E-3,2.263620263E-3,4.271322093E-3
8.057817310E-1,-1.331541222E-3,-1.065233024E-3,2.263620263E-3,2.834025426E-3
8.083153250E-1,-2.663082560E-4,2.130466048E-3,1.331541280E-4,2.151170772E-3
8.108625650E-1,7.989247679E-4,2.130466048E-3,1.331541280E-4,2.279231534E-3
8.133841790E-1,-1.331541222E-3,-1.065233024E-3,1.331541280E-4,1.710395697E-3
8.159193880E-1,-2.663082560E-4,1.065233024E-3,3.328853287E-3,3.505268276E-3
8.184623560E-1,-2.663082560E-4,-1.065233024E-3,2.263620263E-3,2.515873243E-3
8.209848040E-1,1.864157850E-3,0.000000000E0,2.263620263E-3,2.932415589E-3
8.235174080E-1,7.989247679E-4,-1.065233024E-3,1.198387123E-3,1.791405559E-3
8.260515750E-1,-3.462007269E-3,0.000000000E0,3.328853287E-3,4.802786539E-3
8.285881380E-1,-2.396774245E-3,-2.130466048E-3,-9.320789250E-4,3.339488507E-3
8.311196480E-1,-2.663082560E-4,-1.065233024E-3,1.331541280E-4,1.106061257E-3
8.336488670E-1,-2.396774245E-3,-1.065233024E-3,1.331541280E-4,2.626209855E-3
8.361847520E-1,1.864157850E-3,1.065233024E-3,2.263620263E-3,3.119901053E-3
8.387187110E-1,-2.663082560E-4,2.130466048E-3,1.198387123E-3,2.458848788E-3
8.412513150E-1,-2.663082560E-4,0.000000000E0,1.331541280E-4,2.977416816E-4
8.437850130E-1,-2.663082560E-4,2.130466048E-3,1.331541280E-4,2.151170772E-3
8.463186060E-1,-2.396774245E-3,2.130466048E-3,1.198387123E-3,3.423381962E-3
8.488522520E-1,-2.396774245E-3,2.130466048E-3,3.328853287E-3,4.622193913E-3
8.513853250E-1,-1.331541222E-3,2.130466048E-3,-9.320789250E-4,2.679675116E-3
8.539197520E-1,-2.663082560E-4,0.000000000E0,1.198387123E-3,1.227620374E-3
8.564549610E-1,-1.331541222E-3,3.195699072E-3,1.198387123E-3,3.663553777E-3
8.589881380E-1,7.989247679E-4,3.195699072E-3,-9.320789250E-4,3.423382021E-3
8.615217310E-1,-2.663082560E-4,0.000000000E0,1.198387123E-3,1.227620374E-3
8.640525130E-1,-2.396774245E-3,-1.065233024E-3,-9.320789250E-4,2.783526415E-3
8.665866270E-1,-4.527240526E-3,3.195699072E-3,1.331541280E-4,5.543115492E-3
8.691261060E-1,7.989247679E-4,3.195699072E-3,2.263620263E-3,3.996842508E-3
8.716523560E-1,1.864157850E-3,0.000000000E0,2.263620263E-3,2.932415589E-3
8.741865230E-1,3.994623665E-3,-1.065233024E-3,-9.320789250E-4,4.237984278E-3
8.767191270E-1,-1.331541222E-3,2.130466048E-3,-1.997311832E-3,3.209539244E-3
8.792537630E-1,-1.331541222E-3,0.000000000E0,-9.320789250E-4,1.625353238E-3
8.817858980E-1,-5.592473317E-3,1.065233024E-3,-9.320789250E-4,5.768817064E-3
8.843182420E-1,-3.462007269E-3,5.326164886E-3,2.263620263E-3,6.743701018E-3
8.868524080E-1,-2.663082560E-4,1.065233024E-3,1.198387123E-3,1.625353247E-3
8.893860020E-1,1.864157850E-3,-1.065233024E-3,1.331541280E-4,2.151170822E-3
8.919236060E-1,1.864157850E-3,0.000000000E0,-9.320789250E-4,2.084191837E-3
8.944559500E-1,-2.663082560E-4,1.065233024E-3,1.198387123E-3,1.625353247E-3
8.969898040E-1,7.989247679E-4,-1.065233024E-3,1.331541280E-4,1.338182425E-3
8.995271480E-1,-3.462007269E-3,-2.130466048E-3,1.331541280E-4,4.067199274E-3
9.020560020E-1,-1.331541222E-3,2.130466048E-3,3.328853287E-3,4.170509778E-3
9.046055860E-1,1.864157850E-3,1.065233024E-3,1.198387123E-3,2.458848832E-3
9.071239190E-1,-2.663082560E-4,-1.065233024E-3,-9.320789250E-4,1.440282127E-3
9.096569400E-1,-2.663082560E-4,-1.065233024E-3,3.328853287E-3,3.505268276E-3
9.121861580E-1,7.989247679E-4,2.130466048E-3,1.198387123E-3,2.571633345E-3
9.147201170E-1,7.989247679E-4,-1.065233024E-3,-9.320789250E-4,1.625353285E-3
9.172537110E-1,-1.331541222E-3,0.000000000E0,-9.320789250E-4,1.625353238E-3
9.197902730E-1,-3.462007269E-3,1.065233024E-3,1.198387123E-3,3.815278158E-3
9.223197000E-1,-2.663082560E-4,0.000000000E0,2.263620263E-3,2.279231621E-3
9.248532420E-1,7.989247679E-4,2.130466048E-3,-1.997311832E-3,3.027609770E-3
9.273862110E-1,-3.462007269E-3,0.000000000E0,1.198387123E-3,3.663553743E-3
9.299203250E-1,-4.527240526E-3,-1.065233024E-3,1.198387123E-3,4.802786678E-3
9.324537630E-1,1.864157850E-3,0.000000000E0,1.331541280E-4,1.868907304E-3
9.349870440E-1,-5.592473317E-3,3.195699072E-3,1.331541280E-4,6.442513514E-3
9.375196480E-1,-2.396774245E-3,4.260932095E-3,2.263620263E-3,5.387396941E-3
9.400560020E-1,1.864157850E-3,-1.065233024E-3,1.198387123E-3,2.458848832E-3
9.425872520E-1,3.994623665E-3,1.065233024E-3,1.331541280E-4,4.136359467E-3
9.451201170E-1,1.864157850E-3,2.130466048E-3,1.331541280E-4,2.834025422E-3
9.476547520E-1,-2.663082560E-4,-1.065233024E-3,4.394086078E-3,4.529197936E-3
9.501870960E-1,-2.396774245E-3,4.260932095E-3,1.198387123E-3,5.033507803E-3
9.527209500E-1,-1.331541222E-3,2.130466048E-3,1.331541280E-4,2.515873134E-3
9.552527730E-1,7.989247679E-4,-2.130466048E-3,1.198387123E-3,2.571633345E-3
9.577869400E-1,2.929390874E-3,0.000000000E0,1.331541280E-4,2.932415542E-3
9.603205860E-1,7.989247679E-4,1.065233024E-3,1.198387123E-3,1.791405559E-3
9.628594400E-1,-2.663082560E-4,-1.065233024E-3,3.328853287E-3,3.505268276E-3
9.653918360E-1,-2.396774245E-3,1.065233024E-3,2.263620263E-3,3.464567054E-3
9.679138150E-1,-2.663082560E-4,-1.065233024E-3,3.328853287E-3,3.505268276E-3
9.704487110E-1,-2.396774245E-3,-2.130466048E-3,1.331541280E-4,3.209539279E-3
9.729880330E-1,7.989247679E-4,0.000000000E0,1.331541280E-4,8.099449404E-4
9.755208980E-1,-2.663082560E-4,0.000000000E0,-9.320789250E-4,9.693767119E-4
9.780547520E-1,-5.592473317E-3,1.065233024E-3,4.394086078E-3,7.191555580E-3
9.805926170E-1,-3.462007269E-3,1.065233024E-3,1.331541280E-4,3.624630429E-3
9.831237630E-1,3.994623665E-3,2.130466048E-3,-9.320789250E-4,4.622193735E-3
9.856541270E-1,7.989247679E-4,1.065233024E-3,2.263620263E-3,2.626209983E-3
9.881865230E-1,-1.331541222E-3,-2.130466048E-3,1.198387123E-3,2.783526415E-3
9.907203250E-1,-2.396774245E-3,1.065233024E-3,-9.320789250E-4,2.783526415E-3
9.932549080E-1,-1.331541222E-3,2.130466048E-3,1.331541280E-4,2.515873134E-3
9.957869920E-1,-3.462007269E-3,-1.065233024E-3,1.198387123E-3,3.815278158E-3
9.983210020E-1,-2.396774245E-3,2.130466048E-3,1.198387123E-3,3.423381962E-3
1.000859023E0,1.864157850E-3,3.195699072E-3,1.331541280E-4,3.702067945E-3
1.003392408E0,1.864157850E-3,1.065233024E-3,-9.320789250E-4,2.340636026E-3
1.005926367E0,-2.396774245E-3,1.065233024E-3,-1.997311832E-3,3.296741230E-3
1.008458658E0,7.989247679E-4,2.130466048E-3,1.198387123E-3,2.571633345E-3
1.010998867E0,-2.663082560E-4,2.130466048E-3,3.328853287E-3,3.961195511E-3
1.013523033E0,-2.663082560E-4,2.130466048E-3,1.331541280E-4,2.151170772E-3
1.016055429E0,7.989247679E-4,2.130466048E-3,1.331541280E-4,2.279231534E-3
1.018588502E0,-2.663082560E-4,1.065233024E-3,1.198387123E-3,1.625353247E-3
1.021133346E0,-1.331541222E-3,0.000000000E0,3.328853287E-3,3.585284679E-3
1.023655273E0,-2.663082560E-4,-2.130466048E-3,-4.127778113E-3,4.652779580E-3
1.026187929E0,-2.663082560E-4,-1.065233024E-3,1.198387123E-3,1.625353247E-3
1.028721523E0,7.989247679E-4,0.000000000E0,2.263620263E-3,2.400470262E-3
1.031258294E0,-2.663082560E-4,0.000000000E0,1.331541280E-4,2.977416816E-4
1.033789336E0,-2.396774245E-3,1.065233024E-3,1.198387123E-3,2.883640039E-3
1.036322148E0,-2.663082560E-4,0.000000000E0,3.328853287E-3,3.339488627E-3
1.038855273E0,2.929390874E-3,-2.130466048E-3,3.328853287E-3,4.919500043E-3
1.041392513E0,7.989247679E-4,1.065233024E-3,2.263620263E-3,2.626209983E-3
1.043926419E0,1.864157850E-3,0.000000000E0,-9.320789250E-4,2.084191837E-3
1.046458033E0,1.864157850E-3,2.130466048E-3,1.331541280E-4,2.834025422E-3
1.048992461E0,-2.663082560E-4,-1.065233024E-3,-9.320789250E-4,1.440282127E-3
1.051526315E0,7.989247679E-4,-2.130466048E-3,3.328853287E-3,4.032174422E-3
1.054059700E0,-3.462007269E-3,-1.065233024E-3,2.263620263E-3,4.271322093E-3
1.056593138E0,-3.462007269E-3,2.130466048E-3,1.198387123E-3,4.237984380E-3
1.059125950E0,1.864157850E-3,4.260932095E-3,2.263620263E-3,5.172485235E-3
1.061660742E0,-1.331541222E-3,1.065233024E-3,2.263620263E-3,2.834025426E-3
1.064194023E0,7.989247679E-4,0.000000000E0,3.328853287E-3,3.423382098E-3
1.066722461E0,1.864157850E-3,-3.195699072E-3,3.328853287E-3,4.976830442E-3
1.069257148E0,7.989247679E-4,-4.260932095E-3,-1.997311832E-3,4.773162229E-3
1.071796002E0,7.989247679E-4,-2.130466048E-3,-1.997311832E-3,3.027609770E-3
1.074322356E0,1.864157850E-3,3.195699072E-3,3.328853287E-3,4.976830442E-3
1.076856158E0,-3.462007269E-3,2.130466048E-3,1.198387123E-3,4.237984380E-3
1.079390429E0,-2.663082560E-4,2.130466048E-3,3.328853287E-3,3.961195511E-3
1.081922773E0,1.864157850E-3,2.130466048E-3,1.198387123E-3,3.074101782E-3
1.084456836E0,7.989247679E-4,0.000000000E0,1.331541280E-4,8.099449404E-4
1.086989961E0,1.864157850E-3,1.065233024E-3,3.328853287E-3,3.961195538E-3
1.089523346E0,2.929390874E-3,1.065233024E-3,1.198387123E-3,3.339488581E-3
1.092060898E0,1.864157850E-3,-2.130466048E-3,1.331541280E-4,2.834025422E-3
1.094594544E0,-1.331541222E-3,1.065233024E-3,-9.320789250E-4,1.943320494E-3
1.097126575E0,-2.663082560E-4,2.130466048E-3,-9.320789250E-4,2.340635980E-3
1.099661002E0,-1.331541222E-3,0.000000000E0,1.198387123E-3,1.791405515E-3
1.102196054E0,-4.527240526E-3,3.195699072E-3,1.331541280E-4,5.543115492E-3
1.104727825E0,1.864157850E-3,-2.130466048E-3,1.331541280E-4,2.834025422E-3
1.107261471E0,7.989247679E-4,-3.195699072E-3,-9.320789250E-4,3.423382021E-3
1.109793711E0,7.989247679E-4,2.130466048E-3,-5.193010904E-3,5.669614503E-3
1.112325065E0,1.864157850E-3,1.065233024E-3,-1.997311832E-3,2.932415462E-3
1.114856679E0,1.864157850E-3,0.000000000E0,2.263620263E-3,2.932415589E-3
1.117390273E0,7.989247679E-4,1.065233024E-3,1.331541280E-4,1.338182425E-3
1.119923398E0,7.989247679E-4,1.065233024E-3,-9.320789250E-4,1.625353285E-3
1.122454023E0,-1.331541222E-3,0.000000000E0,2.263620263E-3,2.626209953E-3
1.124990429E0,-2.663082560E-4,-3.195699072E-3,3.328853287E-3,4.622193943E-3
1.127523242E0,-2.396774245E-3,4.260932095E-3,1.198387123E-3,5.033507803E-3
1.130057200E0,-1.331541222E-3,3.195699072E-3,-9.320789250E-4,3.585284606E-3
1.132590794E0,1.864157850E-3,-3.195699072E-3,1.198387123E-3,3.888921282E-3
1.135123658E0,1.864157850E-3,-4.260932095E-3,1.198387123E-3,4.802786536E-3
1.137657565E0,-3.462007269E-3,1.065233024E-3,1.198387123E-3,3.815278158E-3
1.140188919E0,-2.396774245E-3,-1.065233024E-3,1.198387123E-3,2.883640039E-3
1.142730898E0,-2.663082560E-4,0.000000000E0,1.198387123E-3,1.227620374E-3
1.145261315E0,7.989247679E-4,-1.065233024E-3,1.198387123E-3,1.791405559E-3
1.147794179E0,-1.331541222E-3,-1.065233024E-3,1.198387123E-3,2.084191718E-3
1.150327565E0,-2.396774245E-3,-1.065233024E-3,1.198387123E-3,2.883640039E-3
1.152861419E0,-1.331541222E-3,1.065233024E-3,1.331541280E-4,1.710395697E-3
1.155394283E0,-2.663082560E-4,1.065233024E-3,1.198387123E-3,1.625353247E-3
1.157929023E0,1.864157850E-3,-2.130466048E-3,-1.997311832E-3,3.464567018E-3
1.160461888E0,-1.331541222E-3,0.000000000E0,1.198387123E-3,1.791405515E-3
1.162991054E0,-1.331541222E-3,2.130466048E-3,1.198387123E-3,2.783526415E-3
1.165523919E0,-2.663082560E-4,2.130466048E-3,3.328853287E-3,3.961195511E-3
1.168057617E0,-2.663082560E-4,0.000000000E0,2.263620263E-3,2.279231621E-3
1.170594127E0,-2.663082560E-4,-2.130466048E-3,2.263620263E-3,3.119901018E-3
1.173124908E0,7.989247679E-4,1.065233024E-3,1.331541280E-4,1.338182425E-3
1.175657408E0,7.989247679E-4,0.000000000E0,1.331541280E-4,8.099449404E-4
1.178190533E0,7.989247679E-4,-2.130466048E-3,1.331541280E-4,2.279231534E-3
1.180724700E0,7.989247679E-4,-2.130466048E-3,1.331541280E-4,2.279231534E-3
1.183261054E0,-1.331541222E-3,-2.130466048E-3,1.198387123E-3,2.783526415E-3
1.185790065E0,7.989247679E-4,0.000000000E0,2.263620263E-3,2.400470262E-3
1.188324336E0,2.929390874E-3,4.260932095E-3,2.263620263E-3,5.644541603E-3
1.190862356E0,7.989247679E-4,-1.065233024E-3,1.198387123E-3,1.791405559E-3
1.193394752E0,-2.663082560E-4,-4.260932095E-3,1.198387123E-3,4.434252373E-3
1.195929127E0,-2.663082560E-4,0.000000000E0,1.331541280E-4,2.977416816E-4
1.198462148E0,-2.663082560E-4,-4.260932095E-3,-4.127778113E-3,5.938435363E-3
1.200995586E0,7.989247679E-4,2.130466048E-3,1.198387123E-3,2.571633345E-3
1.203527929E0,-2.663082560E-4,3.195699072E-3,1.198387123E-3,3.423382003E-3
1.206062148E0,2.929390874E-3,2.130466048E-3,2.263620263E-3,4.271322180E-3
1.208596054E0,-2.396774245E-3,1.065233024E-3,1.331541280E-4,2.626209855E-3
1.211133606E0,-3.462007269E-3,0.000000000E0,-1.997311832E-3,3.996842365E-3
1.213658398E0,7.989247679E-4,1.065233024E-3,1.198387123E-3,1.791405559E-3
1.216192252E0,7.989247679E-4,2.130466048E-3,2.263620263E-3,3.209539384E-3
1.218724856E0,-1.331541222E-3,1.065233024E-3,2.263620263E-3,2.834025426E-3
1.221259752E0,-1.331541222E-3,2.130466048E-3,1.198387123E-3,2.783526415E-3
1.223796158E0,-2.396774245E-3,1.065233024E-3,1.331541280E-4,2.626209855E-3
1.226328919E0,-3.462007269E-3,1.065233024E-3,1.198387123E-3,3.815278158E-3
1.228858398E0,-2.396774245E-3,0.000000000E0,-1.997311832E-3,3.119900854E-3
1.231392565E0,-1.331541222E-3,0.000000000E0,1.198387123E-3,1.791405515E-3
1.233926158E0,-1.331541222E-3,2.130466048E-3,1.331541280E-4,2.515873134E-3
1.236459804E0,-2.663082560E-4,2.130466048E-3,-1.997311832E-3,2.932415425E-3
1.238991315E0,7.989247679E-4,-1.065233024E-3,2.263620263E-3,2.626209983E-3
1.241529440E0,-2.396774245E-3,-2.130466048E-3,1.198387123E-3,3.423381962E-3
1.244063346E0,-2.396774245E-3,1.065233024E-3,3.328853287E-3,4.237984472E-3
1.246597200E0,-2.663082560E-4,2.130466048E-3,1.331541280E-4,2.151170772E-3
1.249129544E0,-1.331541222E-3,1.065233024E-3,-1.997311832E-3,2.626209812E-3
1.251660481E0,-2.396774245E-3,0.000000000E0,1.331541280E-4,2.400470122E-3
1.254196263E0,-2.663082560E-4,0.000000000E0,-9.320789250E-4,9.693767119E-4
1.256729127E0,1.864157850E-3,0.000000000E0,1.198387123E-3,2.216126392E-3
1.259263554E0,-2.663082560E-4,-1.065233024E-3,1.331541280E-4,1.106061257E-3
1.261792044E0,-2.396774245E-3,-1.065233024E-3,-9.320789250E-4,2.783526415E-3
1.264328658E0,7.989247679E-4,3.195699072E-3,1.331541280E-4,3.296741325E-3
1.266858554E0,1.864157850E-3,2.130466048E-3,1.198387123E-3,3.074101782E-3
1.269392929E0,-3.462007269E-3,2.130466048E-3,1.331541280E-4,4.067199274E-3
1.271923450E0,-2.396774245E-3,3.195699072E-3,-9.320789250E-4,4.101925214E-3
1.274461783E0,-1.331541222E-3,0.000000000E0,2.263620263E-3,2.626209953E-3
1.276992825E0,-2.396774245E-3,-1.065233024E-3,1.198387123E-3,2.883640039E-3
1.279526211E0,-2.396774245E-3,1.065233024E-3,1.331541280E-4,2.626209855E-3
1.282059596E0,1.864157850E-3,0.000000000E0,2.263620263E-3,2.932415589E-3
1.284593658E0,1.864157850E-3,0.000000000E0,3.328853287E-3,3.815278325E-3
1.287126367E0,7.989247679E-4,2.130466048E-3,1.331541280E-4,2.279231534E-3
1.289659179E0,-3.462007269E-3,1.065233024E-3,1.331541280E-4,3.624630429E-3
1.292193398E0,2.929390874E-3,1.065233024E-3,1.198387123E-3,3.339488581E-3
1.294726992E0,3.994623665E-3,-2.130466048E-3,1.198387123E-3,4.683165116E-3
1.297264283E0,-1.331541222E-3,0.000000000E0,2.263620263E-3,2.626209953E-3
1.299793502E0,-1.331541222E-3,4.260932095E-3,1.198387123E-3,4.622193856E-3
1.302328658E0,-2.663082560E-4,1.065233024E-3,-1.997311832E-3,2.279231458E-3
1.304867044E0,-3.462007269E-3,3.195699072E-3,-9.320789250E-4,4.802786484E-3
1.307397252E0,-1.331541222E-3,2.130466048E-3,1.198387123E-3,2.783526415E-3
1.309931315E0,-2.396774245E-3,0.000000000E0,1.198387123E-3,2.679675070E-3
1.312460898E0,1.864157850E-3,1.065233024E-3,4.394086078E-3,4.890582618E-3
1.314993450E0,1.864157850E-3,0.000000000E0,2.263620263E-3,2.932415589E-3
1.317527304E0,2.929390874E-3,-1.065233024E-3,-9.320789250E-4,3.253432558E-3
1.320059700E0,-1.331541222E-3,3.195699072E-3,1.198387123E-3,3.663553777E-3
1.322584804E0,-1.331541222E-3,2.130466048E-3,1.198387123E-3,2.783526415E-3
1.325126471E0,-1.331541222E-3,-2.130466048E-3,1.198387123E-3,2.783526415E-3
1.327660325E0,1.864157850E-3,-4.260932095E-3,1.331541280E-4,4.652779474E-3
1.330193450E0,1.864157850E-3,-4.260932095E-3,3.328853287E-3,5.719431005E-3
1.332730533E0,7.989247679E-4,3.195699072E-3,1.198387123E-3,3.505268183E-3
1.335261523E0,-2.663082560E-4,1.065233024E-3,1.331541280E-4,1.106061257E-3
1.337793867E0,-2.663082560E-4,2.130466048E-3,1.198387123E-3,2.458848788E-3
1.340327461E0,-2.663082560E-4,2.130466048E-3,1.198387123E-3,2.458848788E-3
1.342864752E0,6.125089712E-3,2.130466048E-3,-1.997311832E-3,6.785636604E-3
1.345401106E0,3.994623665E-3,2.130466048E-3,-9.320789250E-4,4.622193735E-3
1.347931263E0,-2.663082560E-4,-1.065233024E-3,1.198387123E-3,1.625353247E-3
1.350465429E0,1.864157850E-3,1.065233024E-3,1.331541280E-4,2.151170822E-3
1.352994961E0,7.989247679E-4,1.065233024E-3,2.263620263E-3,2.626209983E-3
1.355526523E0,-2.663082560E-4,-2.130466048E-3,1.331541280E-4,2.151170772E-3
1.358061158E0,-1.331541222E-3,0.000000000E0,2.263620263E-3,2.626209953E-3
1.360600221E0,-1.331541222E-3,0.000000000E0,2.263620263E-3,2.626209953E-3
1.363133033E0,7.989247679E-4,0.000000000E0,3.328853287E-3,3.423382098E-3
1.365665638E0,2.929390874E-3,4.260932095E-3,2.263620263E-3,5.644541603E-3
1.368198033E0,1.864157850E-3,3.195699072E-3,1.331541280E-4,3.702067945E-3
1.370727721E0,-2.663082560E-4,2.130466048E-3,-9.320789250E-4,2.340635980E-3
1.373262148E0,7.989247679E-4,0.000000000E0,-1.997311832E-3,2.151170691E-3
1.375794231E0,3.994623665E-3,-1.065233024E-3,2.263620263E-3,4.713355102E-3
1.378328190E0,-2.663082560E-4,1.065233024E-3,2.263620263E-3,2.515873243E-3
1.380862617E0,-2.396774245E-3,0.000000000E0,1.198387123E-3,2.679675070E-3
1.383395690E0,1.864157850E-3,1.065233024E-3,-9.320789250E-4,2.340636026E-3
1.385931575E0,-2.663082560E-4,1.065233024E-3,2.263620263E-3,2.515873243E-3
1.388463450E0,-2.663082560E-4,0.000000000E0,2.263620263E-3,2.279231621E-3
1.390994752E0,7.989247679E-4,3.195699072E-3,4.394086078E-3,5.491699719E-3
1.393528138E0,-2.396774245E-3,3.195699072E-3,3.328853287E-3,5.199834954E-3
1.396063606E0,7.989247679E-4,2.130466048E-3,1.331541280E-4,2.279231534E-3
1.398595221E0,7.989247679E-4,0.000000000E0,1.331541280E-4,8.099449404E-4
1.401131940E0,7.989247679E-4,0.000000000E0,2.263620263E-3,2.400470262E-3
1.403665898E0,2.929390874E-3,3.195699072E-3,1.198387123E-3,4.497772242E-3
1.406199492E0,7.989247679E-4,-1.065233024E-3,1.198387123E-3,1.791405559E-3
1.408733398E0,-2.663082560E-4,-1.065233024E-3,1.198387123E-3,1.625353247E-3
1.411272044E0,7.989247679E-4,4.260932095E-3,2.263620263E-3,4.890582767E-3
1.413792825E0,-1.331541222E-3,0.000000000E0,1.331541280E-4,1.338182367E-3
1.416328554E0,-1.331541222E-3,0.000000000E0,1.331541280E-4,1.338182367E-3
1.418862929E0,1.864157850E-3,2.130466048E-3,1.198387123E-3,3.074101782E-3
1.421394804E0,1.864157850E-3,1.065233024E-3,1.198387123E-3,2.458848832E-3
1.423928711E0,-1.331541222E-3,-1.065233024E-3,1.331541280E-4,1.710395697E-3
1.426465533E0,-2.396774245E-3,-1.065233024E-3,1.331541280E-4,2.626209855E-3
1.428994388E0,-1.331541222E-3,-2.130466048E-3,3.328853287E-3,4.170509778E-3
1.431529179E0,-1.331541222E-3,1.065233024E-3,2.263620263E-3,2.834025426E-3
1.434061731E0,-2.663082560E-4,1.065233024E-3,1.198387123E-3,1.625353247E-3
1.436598190E0,-2.396774245E-3,1.065233024E-3,1.198387123E-3,2.883640039E-3
1.439130742E0,7.989247679E-4,0.000000000E0,-9.320789250E-4,1.227620425E-3
1.441665690E0,2.929390874E-3,-1.065233024E-3,1.198387123E-3,3.339488581E-3
1.444199856E0,3.994623665E-3,4.260932095E-3,1.331541280E-4,5.842113536E-3
1.446733502E0,1.864157850E-3,1.065233024E-3,-1.997311832E-3,2.932415462E-3
1.449266158E0,1.864157850E-3,-2.130466048E-3,2.263620263E-3,3.624630569E-3
1.451796158E0,7.989247679E-4,1.065233024E-3,1.198387123E-3,1.791405559E-3
1.454328502E0,7.989247679E-4,1.065233024E-3,1.331541280E-4,1.338182425E-3
1.456863190E0,7.989247679E-4,-2.130466048E-3,-3.062544856E-3,3.815278150E-3
1.459394700E0,-1.331541222E-3,-1.065233024E-3,1.331541280E-4,1.710395697E-3
1.461930638E0,-2.663082560E-4,3.195699072E-3,1.331541280E-4,3.209539323E-3
1.464463086E0,2.929390874E-3,-4.260932095E-3,1.198387123E-3,5.307824875E-3
1.466999075E0,7.989247679E-4,-2.130466048E-3,1.198387123E-3,2.571633345E-3
1.469529752E0,-1.331541222E-3,-1.065233024E-3,3.328853287E-3,3.740185507E-3
1.472062617E0,1.864157850E-3,1.065233024E-3,1.331541280E-4,2.151170822E-3
1.474620950E0,-2.396774245E-3,-1.065233024E-3,1.198387123E-3,2.883640039E-3
1.477133606E0,-2.396774245E-3,-1.065233024E-3,1.198387123E-3,2.883640039E-3
1.479652408E0,1.864157850E-3,1.065233024E-3,1.198387123E-3,2.458848832E-3
1.482219336E0,7.989247679E-4,2.130466048E-3,5.459319334E-3,5.914502004E-3
1.484733763E0,7.989247679E-4,2.130466048E-3,2.263620263E-3,3.209539384E-3
1.487263867E0,1.864157850E-3,0.000000000E0,1.331541280E-4,1.868907304E-3
1.489820429E0,7.989247679E-4,-1.065233024E-3,2.263620263E-3,2.626209983E-3
1.492333867E0,-1.331541222E-3,3.195699072E-3,1.331541280E-4,3.464567015E-3
1.494852408E0,-2.663082560E-4,1.065233024E-3,1.331541280E-4,1.106061257E-3
1.497418190E0,-2.663082560E-4,-3.195699072E-3,1.331541280E-4,3.209539323E-3
1.499949492E0,2.929390874E-3,1.065233024E-3,1.198387123E-3,3.339488581E-3
1.502466627E0,2.929390874E-3,-1.065233024E-3,1.331541280E-4,3.119901009E-3
1.504986783E0,1.864157850E-3,0.000000000E0,-9.320789250E-4,2.084191837E-3
1.507517617E0,-2.396774245E-3,3.195699072E-3,1.331541280E-4,3.996842424E-3
1.510063086E0,1.864157850E-3,-1.065233024E-3,2.263620263E-3,3.119901053E-3
1.512586315E0,2.929390874E-3,-2.130466048E-3,1.331541280E-4,3.624630532E-3
1.515130273E0,-1.331541222E-3,1.065233024E-3,-1.997311832E-3,2.626209812E-3
1.517652617E0,-5.592473317E-3,-2.130466048E-3,1.331541280E-4,5.986014818E-3
1.520200273E0,6.125089712E-3,-3.195699072E-3,-9.320789250E-4,6.971225693E-3
1.522719908E0,7.989247679E-4,0.000000000E0,1.331541280E-4,8.099449404E-4
1.525288033E0,-2.396774245E-3,0.000000000E0,2.263620263E-3,3.296741342E-3
1.527800429E0,3.994623665E-3,1.065233024E-3,2.263620263E-3,4.713355102E-3
1.530320273E0,7.989247679E-4,-1.065233024E-3,1.331541280E-4,1.338182425E-3
1.532888190E0,-2.663082560E-4,0.000000000E0,-1.997311832E-3,2.014987504E-3
1.535401054E0,-2.663082560E-4,1.065233024E-3,1.198387123E-3,1.625353247E-3
1.537931211E0,7.989247679E-4,0.000000000E0,1.198387123E-3,1.440282084E-3
1.540486731E0,-3.462007269E-3,1.065233024E-3,1.198387123E-3,3.815278158E-3
1.543000898E0,-2.396774245E-3,0.000000000E0,2.263620263E-3,3.296741342E-3
1.545520273E0,-1.331541222E-3,0.000000000E0,1.198387123E-3,1.791405515E-3
1.548052721E0,-2.663082560E-4,1.065233024E-3,1.198387123E-3,1.625353247E-3
1.550602565E0,-2.663082560E-4,1.065233024E-3,2.263620263E-3,2.515873243E-3
1.553124544E0,7.989247679E-4,1.065233024E-3,-9.320789250E-4,1.625353285E-3
1.555667773E0,-2.663082560E-4,4.260932095E-3,1.198387123E-3,4.434252373E-3
1.558192617E0,-2.663082560E-4,4.260932095E-3,2.263620263E-3,4.832229206E-3
1.560733971E0,2.929390874E-3,3.195699072E-3,2.263620263E-3,4.890582802E-3
1.563265013E0,-1.331541222E-3,3.195699072E-3,1.198387123E-3,3.663553777E-3
1.565821575E0,-2.663082560E-4,4.260932095E-3,1.198387123E-3,4.434252373E-3
1.568333971E0,-1.331541222E-3,2.130466048E-3,1.331541280E-4,2.515873134E-3
1.570853763E0,1.864157850E-3,-1.065233024E-3,2.263620263E-3,3.119901053E-3
1.573420898E0,-2.663082560E-4,1.065233024E-3,2.263620263E-3,2.515873243E-3
1.575932461E0,1.864157850E-3,-1.065233024E-3,1.198387123E-3,2.458848832E-3
1.578453606E0,3.994623665E-3,-1.065233024E-3,1.198387123E-3,4.304401389E-3
1.580998398E0,7.989247679E-4,1.065233024E-3,1.331541280E-4,1.338182425E-3
1.583531263E0,7.989247679E-4,-2.130466048E-3,1.198387123E-3,2.571633345E-3
1.586064388E0,-2.396774245E-3,1.065233024E-3,4.394086078E-3,5.117347031E-3
1.588601263E0,7.989247679E-4,1.065233024E-3,1.198387123E-3,1.791405559E-3
1.591133190E0,-2.663082560E-4,1.065233024E-3,-1.997311832E-3,2.279231458E-3
1.593663763E0,-2.396774245E-3,2.130466048E-3,1.331541280E-4,3.209539279E-3
1.596198658E0,7.989247679E-4,3.195699072E-3,2.263620263E-3,3.996842508E-3
1.598730742E0,-2.663082560E-4,2.130466048E-3,1.198387123E-3,2.458848788E-3
1.601266211E0,-1.331541222E-3,0.000000000E0,-9.320789250E-4,1.625353238E-3
1.603798815E0,-1.331541222E-3,1.065233024E-3,-9.320789250E-4,1.943320494E-3
1.606332669E0,-2.663082560E-4,0.000000000E0,2.263620263E-3,2.279231621E-3
1.608865586E0,7.989247679E-4,-1.065233024E-3,2.263620263E-3,2.626209983E-3
1.611411002E0,-2.663082560E-4,1.065233024E-3,1.331541280E-4,1.106061257E-3
1.613933086E0,-2.663082560E-4,0.000000000E0,1.198387123E-3,1.227620374E-3
1.616466523E0,-2.396774245E-3,3.195699072E-3,2.263620263E-3,4.591404582E-3
1.618999544E0,1.864157850E-3,0.000000000E0,-9.320789250E-4,2.084191837E-3
1.621531940E0,-2.663082560E-4,0.000000000E0,-9.320789250E-4,9.693767119E-4
1.624066002E0,-3.462007269E-3,2.130466048E-3,1.331541280E-4,4.067199274E-3
1.626599179E0,-2.663082560E-4,1.065233024E-3,-9.320789250E-4,1.440282127E-3
1.629134752E0,-2.396774245E-3,3.195699072E-3,-9.320789250E-4,4.101925214E-3
1.631664648E0,-2.663082560E-4,2.130466048E-3,3.328853287E-3,3.961195511E-3
1.634199127E0,3.994623665E-3,-1.065233024E-3,2.263620263E-3,4.713355102E-3
1.636732721E0,-1.331541222E-3,1.065233024E-3,1.331541280E-4,1.710395697E-3
1.639267617E0,-3.462007269E-3,1.065233024E-3,2.263620263E-3,4.271322093E-3
1.641805169E0,-2.663082560E-4,0.000000000E0,-9.320789250E-4,9.693767119E-4
1.644335950E0,-1.331541222E-3,1.065233024E-3,1.198387123E-3,2.084191718E-3
1.646870065E0,-1.331541222E-3,0.000000000E0,2.263620263E-3,2.626209953E-3
1.649402929E0,-2.396774245E-3,1.065233024E-3,1.198387123E-3,2.883640039E-3
1.651933242E0,-2.663082560E-4,-1.065233024E-3,1.331541280E-4,1.106061257E-3
1.654465325E0,1.864157850E-3,-3.195699072E-3,1.198387123E-3,3.888921282E-3
1.656997929E0,7.989247679E-4,2.130466048E-3,1.198387123E-3,2.571633345E-3
1.659533450E0,1.864157850E-3,3.195699072E-3,1.198387123E-3,3.888921282E-3
1.662067096E0,-2.663082560E-4,-1.065233024E-3,1.198387123E-3,1.625353247E-3
1.664600169E0,-2.663082560E-4,2.130466048E-3,1.198387123E-3,2.458848788E-3
1.667132981E0,1.864157850E-3,2.130466048E-3,1.198387123E-3,3.074101782E-3
1.669669336E0,7.989247679E-4,0.000000000E0,1.198387123E-3,1.440282084E-3
1.672199752E0,2.929390874E-3,-3.195699072E-3,1.198387123E-3,4.497772242E-3
1.674733138E0,-1.331541222E-3,0.000000000E0,1.331541280E-4,1.338182367E-3
1.677267565E0,7.989247679E-4,3.195699072E-3,1.198387123E-3,3.505268183E-3
1.679789544E0,-2.396774245E-3,3.195699072E-3,1.331541280E-4,3.996842424E-3
1.682333502E0,-3.462007269E-3,3.195699072E-3,-9.320789250E-4,4.802786484E-3
1.684867408E0,-2.396774245E-3,1.065233024E-3,1.331541280E-4,2.626209855E-3
1.687399700E0,-2.396774245E-3,3.195699072E-3,1.198387123E-3,4.170509685E-3
1.689933658E0,2.929390874E-3,3.195699072E-3,-1.997311832E-3,4.773162264E-3
1.692468919E0,2.929390874E-3,3.195699072E-3,-9.320789250E-4,4.434252425E-3
1.695001211E0,-2.663082560E-4,3.195699072E-3,1.198387123E-3,3.423382003E-3
1.697533815E0,7.989247679E-4,7.456631400E-3,2.263620263E-3,7.833492791E-3
1.700067200E0,5.059856921E-3,2.130466048E-3,1.331541280E-4,5.491699889E-3
1.702600794E0,-1.331541222E-3,-1.065233024E-3,-9.320789250E-4,1.943320494E-3
1.705134179E0,-1.331541222E-3,2.130466048E-3,3.328853287E-3,4.170509778E-3
1.707667304E0,-2.663082560E-4,1.065233024E-3,3.328853287E-3,3.505268276E-3
1.710203398E0,1.864157850E-3,-2.130466048E-3,1.198387123E-3,3.074101782E-3
1.712733763E0,3.994623665E-3,0.000000000E0,1.331541280E-4,3.996842284E-3
1.715268190E0,-2.663082560E-4,0.000000000E0,2.263620263E-3,2.279231621E-3
1.717800533E0,-2.396774245E-3,-1.065233024E-3,5.459319334E-3,6.056683562E-3
1.720335794E0,-2.396774245E-3,1.065233024E-3,4.394086078E-3,5.117347031E-3
1.722867617E0,1.864157850E-3,2.130466048E-3,2.263620263E-3,3.624630569E-3
1.725400117E0,7.989247679E-4,1.065233024E-3,1.331541280E-4,1.338182425E-3
1.727934908E0,1.864157850E-3,2.130466048E-3,-9.320789250E-4,2.980392792E-3
1.730468763E0,7.989247679E-4,1.065233024E-3,1.198387123E-3,1.791405559E-3
1.733001054E0,1.864157850E-3,0.000000000E0,-9.320789250E-4,2.084191837E-3
1.735534440E0,-3.462007269E-3,0.000000000E0,1.331541280E-4,3.464566979E-3
1.738068086E0,7.989247679E-4,0.000000000E0,1.198387123E-3,1.440282084E-3
1.740601471E0,-1.331541222E-3,2.130466048E-3,-9.320789250E-4,2.679675116E-3
1.743134075E0,-1.331541222E-3,0.000000000E0,-9.320789250E-4,1.625353238E-3
1.745668033E0,7.989247679E-4,-1.065233024E-3,-1.997311832E-3,2.400470107E-3
1.748202096E0,-2.396774245E-3,-2.130466048E-3,1.331541280E-4,3.209539279E-3
1.750737929E0,-2.396774245E-3,1.065233024E-3,1.198387123E-3,2.883640039E-3
1.753272252E0,2.929390874E-3,0.000000000E0,1.331541280E-4,2.932415542E-3
1.755801315E0,7.989247679E-4,-2.130466048E-3,1.198387123E-3,2.571633345E-3
1.758334596E0,-2.396774245E-3,-3.195699072E-3,2.263620263E-3,4.591404582E-3
1.760867200E0,-3.462007269E-3,1.065233024E-3,1.331541280E-4,3.624630429E-3
1.763401054E0,2.929390874E-3,0.000000000E0,-9.320789250E-4,3.074101822E-3
1.765935273E0,1.864157850E-3,2.130466048E-3,1.331541280E-4,2.834025422E-3
1.768469440E0,7.989247679E-4,0.000000000E0,1.198387123E-3,1.440282084E-3
1.771001575E0,-2.396774245E-3,0.000000000E0,1.198387123E-3,2.679675070E-3
1.773534336E0,-3.462007269E-3,1.065233024E-3,2.263620263E-3,4.271322093E-3
1.776067461E0,-2.663082560E-4,0.000000000E0,-1.997311832E-3,2.014987504E-3
1.778602981E0,1.864157850E-3,-1.065233024E-3,-3.062544856E-3,3.740185407E-3
1.781135013E0,-2.663082560E-4,-2.130466048E-3,1.198387123E-3,2.458848788E-3
1.783669440E0,7.989247679E-4,0.000000000E0,1.198387123E-3,1.440282084E-3
1.786202304E0,3.994623665E-3,-1.065233024E-3,2.263620263E-3,4.713355102E-3
1.788734908E0,7.989247679E-4,-2.130466048E-3,1.198387123E-3,2.571633345E-3
1.791271992E0,-2.396774245E-3,2.130466048E-3,2.263620263E-3,3.925224714E-3
1.793801679E0,-1.331541222E-3,0.000000000E0,1.198387123E-3,1.791405515E-3
1.796335273E0,-2.663082560E-4,1.065233024E-3,1.198387123E-3,1.625353247E-3
1.798868919E0,7.989247679E-4,3.195699072E-3,-1.997311832E-3,3.852275678E-3
1.801401992E0,-1.331541222E-3,0.000000000E0,1.331541280E-4,1.338182367E-3
1.803935950E0,1.864157850E-3,0.000000000E0,1.198387123E-3,2.216126392E-3
1.806468242E0,1.864157850E-3,3.195699072E-3,3.328853287E-3,4.976830442E-3
1.809001419E0,-2.663082560E-4,2.130466048E-3,1.198387123E-3,2.458848788E-3
1.811545273E0,-2.663082560E-4,-1.065233024E-3,1.331541280E-4,1.106061257E-3
1.814068658E0,3.994623665E-3,0.000000000E0,-9.320789250E-4,4.101925078E-3
1.816603658E0,1.864157850E-3,2.130466048E-3,-9.320789250E-4,2.980392792E-3
1.819136211E0,7.989247679E-4,1.065233024E-3,2.263620263E-3,2.626209983E-3
1.821669804E0,2.929390874E-3,-1.065233024E-3,-9.320789250E-4,3.253432558E-3
1.824202929E0,-2.396774245E-3,-1.065233024E-3,-9.320789250E-4,2.783526415E-3
1.826735794E0,-2.396774245E-3,0.000000000E0,1.198387123E-3,2.679675070E-3
1.829268919E0,7.989247679E-4,3.195699072E-3,1.198387123E-3,3.505268183E-3
1.831809440E0,1.864157850E-3,3.195699072E-3,1.198387123E-3,3.888921282E-3
1.834334336E0,-3.462007269E-3,1.065233024E-3,-3.062544856E-3,4.743352899E-3
1.836870013E0,1.864157850E-3,1.065233024E-3,-1.997311832E-3,2.932415462E-3
1.839402981E0,7.989247679E-4,3.195699072E-3,1.198387123E-3,3.505268183E-3
1.841952929E0,1.864157850E-3,3.195699072E-3,2.263620263E-3,4.337228809E-3
1.844470481E0,7.989247679E-4,1.065233024E-3,1.198387123E-3,1.791405559E-3
1.847003086E0,-3.462007269E-3,-1.065233024E-3,1.198387123E-3,3.815278158E-3
1.849536471E0,-2.396774245E-3,-1.065233024E-3,1.198387123E-3,2.883640039E-3
1.852069596E0,-1.331541222E-3,3.195699072E-3,1.331541280E-4,3.464567015E-3
1.854604283E0,-1.331541222E-3,0.000000000E0,1.331541280E-4,1.338182367E-3
1.857137096E0,-1.331541222E-3,-2.130466048E-3,4.394086078E-3,5.061608446E-3
1.859668919E0,1.864157850E-3,-1.065233024E-3,2.263620263E-3,3.119901053E-3
1.862203086E0,-2.663082560E-4,2.130466048E-3,-1.997311832E-3,2.932415425E-3
1.864736992E0,-3.462007269E-3,0.000000000E0,1.198387123E-3,3.663553743E-3
1.867270950E0,-1.331541222E-3,2.130466048E-3,3.328853287E-3,4.170509778E-3
1.869804075E0,-1.331541222E-3,1.065233024E-3,1.198387123E-3,2.084191718E-3
1.872340065E0,1.864157850E-3,0.000000000E0,2.263620263E-3,2.932415589E-3
1.874868450E0,-1.331541222E-3,-1.065233024E-3,2.263620263E-3,2.834025426E-3
1.877405429E0,-2.663082560E-4,3.195699072E-3,1.331541280E-4,3.209539323E-3
1.879937773E0,1.864157850E-3,3.195699072E-3,1.198387123E-3,3.888921282E-3
1.882469856E0,1.864157850E-3,0.000000000E0,-9.320789250E-4,2.084191837E-3
1.885002721E0,-1.331541222E-3,2.130466048E-3,1.331541280E-4,2.515873134E-3
1.887537669E0,3.994623665E-3,2.130466048E-3,3.328853287E-3,5.619356548E-3
1.890070481E0,-1.331541222E-3,-2.130466048E-3,1.331541280E-4,2.515873134E-3
1.892604440E0,-2.396774245E-3,0.000000000E0,2.263620263E-3,3.296741342E-3
1.895137252E0,-2.396774245E-3,4.260932095E-3,2.263620263E-3,5.387396941E-3
1.897670117E0,7.989247679E-4,3.195699072E-3,1.198387123E-3,3.505268183E-3
1.900204804E0,-1.331541222E-3,0.000000000E0,2.263620263E-3,2.626209953E-3
1.902736367E0,7.989247679E-4,1.065233024E-3,1.331541280E-4,1.338182425E-3
1.905271315E0,-2.663082560E-4,1.065233024E-3,1.331541280E-4,1.106061257E-3
1.907803919E0,-3.462007269E-3,2.130466048E-3,2.263620263E-3,4.652779450E-3
1.910339596E0,-3.462007269E-3,1.065233024E-3,3.328853287E-3,4.919499968E-3
1.912874700E0,-2.663082560E-4,0.000000000E0,2.263620263E-3,2.279231621E-3
1.915403242E0,-2.663082560E-4,-2.130466048E-3,2.263620263E-3,3.119901018E-3
1.917937981E0,-2.396774245E-3,-1.065233024E-3,1.331541280E-4,2.626209855E-3
1.920470586E0,-2.663082560E-4,3.195699072E-3,2.263620263E-3,3.925224750E-3
1.923004700E0,-3.462007269E-3,2.130466048E-3,2.263620263E-3,4.652779450E-3
1.925537304E0,-2.396774245E-3,-2.130466048E-3,1.331541280E-4,3.209539279E-3
1.928071523E0,1.864157850E-3,-1.065233024E-3,2.263620263E-3,3.119901053E-3
1.930613711E0,1.864157850E-3,2.130466048E-3,2.263620263E-3,3.624630569E-3
1.933137981E0,1.864157850E-3,-1.065233024E-3,4.394086078E-3,4.890582618E-3
1.935670533E0,-2.396774245E-3,-2.130466048E-3,1.198387123E-3,3.423381962E-3
1.938204440E0,-2.396774245E-3,2.130466048E-3,-9.320789250E-4,3.339488507E-3
1.940738346E0,7.989247679E-4,2.130466048E-3,1.331541280E-4,2.279231534E-3
1.943272565E0,7.989247679E-4,0.000000000E0,3.328853287E-3,3.423382098E-3
1.945804804E0,7.989247679E-4,-1.065233024E-3,-9.320789250E-4,1.625353285E-3
1.948337981E0,7.989247679E-4,0.000000000E0,-9.320789250E-4,1.227620425E-3
1.950871627E0,7.989247679E-4,-1.065233024E-3,-9.320789250E-4,1.625353285E-3
1.953407148E0,1.864157850E-3,0.000000000E0,-9.320789250E-4,2.084191837E-3
1.955943294E0,1.864157850E-3,1.065233024E-3,3.328853287E-3,3.961195538E-3
1.958471523E0,7.989247679E-4,1.065233024E-3,1.198387123E-3,1.791405559E-3
1.961004856E0,7.989247679E-4,1.065233024E-3,2.263620263E-3,2.626209983E-3
1.963537981E0,-2.663082560E-4,1.065233024E-3,1.198387123E-3,1.625353247E-3
1.966071627E0,-2.663082560E-4,1.065233024E-3,-9.320789250E-4,1.440282127E-3
1.968604440E0,7.989247679E-4,1.065233024E-3,1.198387123E-3,1.791405559E-3
1.971139075E0,1.864157850E-3,0.000000000E0,2.263620263E-3,2.932415589E-3
1.973672044E0,-1.331541222E-3,1.065233024E-3,1.198387123E-3,2.084191718E-3
1.976205690E0,-1.331541222E-3,1.065233024E-3,1.198387123E-3,2.084191718E-3
1.978738971E0,1.864157850E-3,2.130466048E-3,1.331541280E-4,2.834025422E-3
1.981272096E0,1.864157850E-3,0.000000000E0,2.263620263E-3,2.932415589E-3
1.983805481E0,2.929390874E-3,-1.065233024E-3,2.263620263E-3,3.852275818E-3
1.986338606E0,1.864157850E-3,0.000000000E0,1.198387123E-3,2.216126392E-3
1.988871992E0,-2.663082560E-4,1.065233024E-3,2.263620263E-3,2.515873243E-3
1.991405377E0,-1.331541222E-3,-2.130466048E-3,3.328853287E-3,4.170509778E-3
1.993939596E0,7.989247679E-4,-1.065233024E-3,1.331541280E-4,1.338182425E-3
1.996472096E0,-2.663082560E-4,2.130466048E-3,1.331541280E-4,2.151170772E-3
1.999005533E0,3.994623665E-3,2.130466048E-3,1.198387123E-3,4.683165116E-3
2.001543033E0,3.994623665E-3,0.000000000E0,1.198387123E-3,4.170509551E-3
2.004076158E0,7.989247679E-4,0.000000000E0,-1.997311832E-3,2.151170691E-3
2.006610325E0,-1.331541222E-3,-2.130466048E-3,1.331541280E-4,2.515873134E-3
2.009142929E0,-1.331541222E-3,1.065233024E-3,3.328853287E-3,3.740185507E-3
2.011695638E0,2.929390874E-3,0.000000000E0,1.198387123E-3,3.165037533E-3
2.014209856E0,5.059856921E-3,-1.065233024E-3,1.198387123E-3,5.307824899E-3
2.016743554E0,7.989247679E-4,2.130466048E-3,3.328853287E-3,4.032174422E-3
2.019276106E0,7.989247679E-4,3.195699072E-3,1.331541280E-4,3.296741325E-3
2.021806471E0,-3.462007269E-3,-2.130466048E-3,-3.062544856E-3,5.089554097E-3
2.024338971E0,-2.663082560E-4,3.195699072E-3,1.198387123E-3,3.423382003E-3
2.026872356E0,-2.663082560E-4,2.130466048E-3,2.263620263E-3,3.119901018E-3
2.029416211E0,1.864157850E-3,1.065233024E-3,1.198387123E-3,2.458848832E-3
2.031939179E0,7.989247679E-4,1.065233024E-3,1.198387123E-3,1.791405559E-3
2.034475481E0,-2.663082560E-4,1.065233024E-3,-9.320789250E-4,1.440282127E-3
2.037005377E0,-2.663082560E-4,1.065233024E-3,1.198387123E-3,1.625353247E-3
2.039540013E0,7.989247679E-4,-1.065233024E-3,1.198387123E-3,1.791405559E-3
2.042073450E0,-2.663082560E-4,0.000000000E0,2.263620263E-3,2.279231621E-3
2.044609179E0,-1.331541222E-3,0.000000000E0,1.198387123E-3,1.791405515E-3
2.047139961E0,7.989247679E-4,1.065233024E-3,-9.320789250E-4,1.625353285E-3
2.049676940E0,1.864157850E-3,1.065233024E-3,1.331541280E-4,2.151170822E-3
2.052207565E0,7.989247679E-4,0.000000000E0,1.198387123E-3,1.440282084E-3
2.054741940E0,-2.396774245E-3,2.130466048E-3,3.328853287E-3,4.622193913E-3
2.057273711E0,-2.663082560E-4,5.326164886E-3,1.198387123E-3,5.465810478E-3
2.059806367E0,-2.396774245E-3,3.195699072E-3,-9.320789250E-4,4.101925214E-3
2.062339492E0,-2.396774245E-3,-2.130466048E-3,1.331541280E-4,3.209539279E-3
2.064872617E0,7.989247679E-4,1.065233024E-3,1.198387123E-3,1.791405559E-3
2.067406002E0,7.989247679E-4,2.130466048E-3,1.331541280E-4,2.279231534E-3
2.069939804E0,-1.331541222E-3,-1.065233024E-3,1.198387123E-3,2.084191718E-3
2.072474752E0,7.989247679E-4,0.000000000E0,1.331541280E-4,8.099449404E-4
2.075009804E0,7.989247679E-4,4.260932095E-3,1.198387123E-3,4.497772204E-3
2.077540742E0,-2.663082560E-4,1.065233024E-3,2.263620263E-3,2.515873243E-3
2.080085429E0,7.989247679E-4,-1.065233024E-3,3.328853287E-3,3.585284701E-3
2.082607304E0,-2.663082560E-4,-2.130466048E-3,1.198387123E-3,2.458848788E-3
2.085140638E0,7.989247679E-4,0.000000000E0,-1.997311832E-3,2.151170691E-3
2.087674856E0,-2.663082560E-4,2.130466048E-3,1.198387123E-3,2.458848788E-3
2.090209804E0,-4.527240526E-3,0.000000000E0,2.263620263E-3,5.061608783E-3
2.092740481E0,-2.663082560E-4,0.000000000E0,2.263620263E-3,2.279231621E-3
2.095274388E0,1.864157850E-3,3.195699072E-3,4.394086078E-3,5.744177008E-3
2.097807044E0,2.929390874E-3,3.195699072E-3,2.263620263E-3,4.890582802E-3
2.100340638E0,1.864157850E-3,-1.065233024E-3,1.198387123E-3,2.458848832E-3
2.102877929E0,7.989247679E-4,1.065233024E-3,1.198387123E-3,1.791405559E-3
2.105412096E0,-3.462007269E-3,1.065233024E-3,2.263620263E-3,4.271322093E-3
2.107945481E0,-1.331541222E-3,0.000000000E0,-9.320789250E-4,1.625353238E-3
2.110478815E0,2.929390874E-3,0.000000000E0,-9.320789250E-4,3.074101822E-3
2.113011158E0,-2.663082560E-4,2.130466048E-3,-9.320789250E-4,2.340635980E-3
2.115547773E0,-4.527240526E-3,-1.065233024E-3,2.263620263E-3,5.172485367E-3
2.118077981E0,-2.396774245E-3,-1.065233024E-3,2.263620263E-3,3.464567054E-3
2.120609700E0,-2.663082560E-4,4.260932095E-3,-9.320789250E-4,4.369809324E-3
2.123142617E0,2.929390874E-3,1.065233024E-3,-1.997311832E-3,3.702067914E-3
2.125675742E0,1.864157850E-3,2.130466048E-3,-9.320789250E-4,2.980392792E-3
2.128207513E0,-3.462007269E-3,2.130466048E-3,1.198387123E-3,4.237984380E-3
2.130734231E0,-3.462007269E-3,3.195699072E-3,1.198387123E-3,4.861493452E-3
2.133271211E0,-1.331541222E-3,-1.065233024E-3,1.198387123E-3,2.084191718E-3
2.135808138E0,-2.663082560E-4,0.000000000E0,-9.320789250E-4,9.693767119E-4
2.138341575E0,-1.331541222E-3,2.130466048E-3,-9.320789250E-4,2.679675116E-3
2.140877304E0,7.989247679E-4,1.065233024E-3,1.331541280E-4,1.338182425E-3
2.143411627E0,1.864157850E-3,1.065233024E-3,2.263620263E-3,3.119901053E-3
2.145946158E0,-2.396774245E-3,2.130466048E-3,1.198387123E-3,3.423381962E-3
2.148478763E0,-2.663082560E-4,3.195699072E-3,2.263620263E-3,3.925224750E-3
2.151008450E0,7.989247679E-4,3.195699072E-3,2.263620263E-3,3.996842508E-3
2.153541367E0,7.989247679E-4,-1.065233024E-3,1.198387123E-3,1.791405559E-3
2.156078190E0,-2.663082560E-4,-2.130466048E-3,1.331541280E-4,2.151170772E-3
2.158608190E0,-1.331541222E-3,-1.065233024E-3,-9.320789250E-4,1.943320494E-3
2.161141523E0,1.864157850E-3,1.065233024E-3,1.331541280E-4,2.151170822E-3
2.163675586E0,-1.331541222E-3,2.130466048E-3,-1.997311832E-3,3.209539244E-3
2.166208763E0,-2.663082560E-4,-3.195699072E-3,-3.062544856E-3,4.434252320E-3
2.168741054E0,7.989247679E-4,-2.130466048E-3,-9.320789250E-4,2.458848813E-3
2.171275794E0,2.929390874E-3,0.000000000E0,2.263620263E-3,3.702068015E-3
2.173806836E0,2.929390874E-3,0.000000000E0,1.198387123E-3,3.165037533E-3
2.176341992E0,-2.663082560E-4,1.065233024E-3,-1.997311832E-3,2.279231458E-3
2.178874283E0,2.929390874E-3,3.195699072E-3,-9.320789250E-4,4.434252425E-3
2.181404075E0,2.929390874E-3,-1.065233024E-3,1.331541280E-4,3.119901009E-3
2.183946263E0,-2.663082560E-4,-2.130466048E-3,-9.320789250E-4,2.340635980E-3
2.186479908E0,2.929390874E-3,-1.065233024E-3,1.331541280E-4,3.119901009E-3
2.189013502E0,7.989247679E-4,-1.065233024E-3,2.263620263E-3,2.626209983E-3
2.191542252E0,-2.663082560E-4,-3.195699072E-3,1.198387123E-3,3.423382003E-3
2.194075169E0,-1.331541222E-3,0.000000000E0,-9.320789250E-4,1.625353238E-3
2.196612721E0,-1.331541222E-3,-1.065233024E-3,1.198387123E-3,2.084191718E-3
2.199141106E0,-1.331541222E-3,-1.065233024E-3,-1.997311832E-3,2.626209812E-3
2.201680169E0,7.989247679E-4,2.130466048E-3,1.331541280E-4,2.279231534E-3
2.204212773E0,7.989247679E-4,0.000000000E0,3.328853287E-3,3.423382098E-3
2.206746627E0,7.989247679E-4,1.065233024E-3,1.198387123E-3,1.791405559E-3
2.209280846E0,-2.396774245E-3,0.000000000E0,1.331541280E-4,2.400470122E-3
2.211818450E0,-4.527240526E-3,0.000000000E0,1.331541280E-4,4.529198252E-3
2.214342356E0,-1.331541222E-3,-1.065233024E-3,1.198387123E-3,2.084191718E-3
2.216876263E0,-1.331541222E-3,1.065233024E-3,-9.320789250E-4,1.943320494E-3
2.219409961E0,-1.331541222E-3,4.260932095E-3,1.198387123E-3,4.622193856E-3
2.221944127E0,5.059856921E-3,3.195699072E-3,-1.997311832E-3,6.309033141E-3
2.224476211E0,1.864157850E-3,5.326164886E-3,3.328853287E-3,6.551670099E-3
2.227006158E0,7.989247679E-4,1.065233024E-3,1.331541280E-4,1.338182425E-3
2.229543190E0,-1.331541222E-3,0.000000000E0,-9.320789250E-4,1.625353238E-3
2.232080325E0,-1.331541222E-3,3.195699072E-3,1.198387123E-3,3.663553777E-3
2.234610221E0,-1.331541222E-3,0.000000000E0,1.198387123E-3,1.791405515E-3
2.237146523E0,-1.331541222E-3,1.065233024E-3,1.198387123E-3,2.084191718E-3
2.239676471E0,1.864157850E-3,2.130466048E-3,1.331541280E-4,2.834025422E-3
2.242210325E0,-2.663082560E-4,-1.065233024E-3,1.331541280E-4,1.106061257E-3
2.244743502E0,7.989247679E-4,1.065233024E-3,1.198387123E-3,1.791405559E-3
2.247278919E0,7.989247679E-4,1.065233024E-3,1.198387123E-3,1.791405559E-3
2.249811054E0,-4.527240526E-3,1.065233024E-3,1.198387123E-3,4.802786678E-3
2.252346002E0,-2.663082560E-4,1.065233024E-3,1.331541280E-4,1.106061257E-3
2.254876992E0,-2.396774245E-3,2.130466048E-3,1.331541280E-4,3.209539279E-3
2.257410377E0,-4.527240526E-3,4.260932095E-3,1.198387123E-3,6.331475404E-3
2.259944023E0,-2.663082560E-4,3.195699072E-3,-9.320789250E-4,3.339488548E-3
2.262475846E0,-2.396774245E-3,2.130466048E-3,1.198387123E-3,3.423381962E-3
2.265010221E0,-1.331541222E-3,1.065233024E-3,1.331541280E-4,1.710395697E-3
2.267544388E0,2.929390874E-3,-1.065233024E-3,-9.320789250E-4,3.253432558E-3
2.270076783E0,7.989247679E-4,-1.065233024E-3,1.198387123E-3,1.791405559E-3
2.272610950E0,-1.331541222E-3,0.000000000E0,1.198387123E-3,1.791405515E-3
2.275143763E0,-2.396774245E-3,-1.065233024E-3,2.263620263E-3,3.464567054E-3
2.277679388E0,-2.663082560E-4,-2.130466048E-3,1.198387123E-3,2.458848788E-3
2.280210013E0,1.864157850E-3,1.065233024E-3,-9.320789250E-4,2.340636026E-3
2.282755169E0,-1.331541222E-3,3.195699072E-3,-9.320789250E-4,3.585284606E-3
2.285278294E0,-1.331541222E-3,3.195699072E-3,3.328853287E-3,4.802786565E-3
2.287810377E0,7.989247679E-4,2.130466048E-3,2.263620263E-3,3.209539384E-3
2.290345117E0,2.929390874E-3,1.065233024E-3,2.263620263E-3,3.852275818E-3
2.292876106E0,-2.663082560E-4,0.000000000E0,2.263620263E-3,2.279231621E-3
2.295411263E0,7.989247679E-4,0.000000000E0,1.198387123E-3,1.440282084E-3
2.297944700E0,7.989247679E-4,1.065233024E-3,3.328853287E-3,3.585284701E-3
2.300481158E0,-5.592473317E-3,2.130466048E-3,1.198387123E-3,6.103341304E-3
2.303010690E0,-1.331541222E-3,0.000000000E0,1.198387123E-3,1.791405515E-3
2.305544283E0,1.864157850E-3,-1.065233024E-3,1.198387123E-3,2.458848832E-3
2.308079283E0,-2.663082560E-4,-1.065233024E-3,-9.320789250E-4,1.440282127E-3
2.310611836E0,-2.663082560E-4,0.000000000E0,1.198387123E-3,1.227620374E-3
2.313143658E0,2.929390874E-3,-1.065233024E-3,-1.997311832E-3,3.702067914E-3
2.315678294E0,-1.331541222E-3,2.130466048E-3,2.263620263E-3,3.381695477E-3
2.318215221E0,-2.663082560E-4,-2.130466048E-3,3.328853287E-3,3.961195511E-3
2.320744075E0,-3.462007269E-3,-2.130466048E-3,1.198387123E-3,4.237984380E-3
2.323278450E0,7.989247679E-4,2.130466048E-3,-9.320789250E-4,2.458848813E-3
2.325811783E0,7.989247679E-4,2.130466048E-3,2.263620263E-3,3.209539384E-3
2.328344440E0,-4.527240526E-3,-2.130466048E-3,2.263620263E-3,5.491700015E-3
2.330878086E0,-2.663082560E-4,-1.065233024E-3,3.328853287E-3,3.505268276E-3
2.333411054E0,2.929390874E-3,-1.065233024E-3,1.198387123E-3,3.339488581E-3
2.335945377E0,1.864157850E-3,-1.065233024E-3,2.263620263E-3,3.119901053E-3
2.338477461E0,-2.396774245E-3,3.195699072E-3,4.394086078E-3,5.938435130E-3
2.341011054E0,-2.663082560E-4,2.130466048E-3,2.263620263E-3,3.119901018E-3
2.343545221E0,-2.396774245E-3,0.000000000E0,-9.320789250E-4,2.571633315E-3
2.346078867E0,1.864157850E-3,-1.065233024E-3,-9.320789250E-4,2.340636026E-3
2.348611731E0,7.989247679E-4,-1.065233024E-3,2.263620263E-3,2.626209983E-3
2.351148711E0,2.929390874E-3,2.130466048E-3,1.198387123E-3,3.815278256E-3
2.353682669E0,2.929390874E-3,3.195699072E-3,2.263620263E-3,4.890582802E-3
2.356215846E0,-2.396774245E-3,2.130466048E-3,-9.320789250E-4,3.339488507E-3
2.358749544E0,7.989247679E-4,1.065233024E-3,-3.062544856E-3,3.339488460E-3
2.361282252E0,-2.663082560E-4,1.065233024E-3,-9.320789250E-4,1.440282127E-3
2.363815846E0,7.989247679E-4,2.130466048E-3,3.328853287E-3,4.032174422E-3
2.366350117E0,-1.331541222E-3,-1.065233024E-3,3.328853287E-3,3.740185507E-3
2.368882148E0,-4.527240526E-3,0.000000000E0,2.263620263E-3,5.061608783E-3
2.371412669E0,-2.396774245E-3,1.065233024E-3,-9.320789250E-4,2.783526415E-3
2.373946263E0,-2.396774245E-3,2.130466048E-3,-1.997311832E-3,3.777918332E-3
2.376478294E0,1.864157850E-3,0.000000000E0,-9.320789250E-4,2.084191837E-3
2.379012200E0,7.989247679E-4,-2.130466048E-3,1.198387123E-3,2.571633345E-3
2.381545325E0,-2.663082560E-4,3.195699072E-3,1.198387123E-3,3.423382003E-3
2.384074388E0,-1.331541222E-3,0.000000000E0,4.394086078E-3,4.591404413E-3
2.386613450E0,-2.663082560E-4,-2.130466048E-3,3.328853287E-3,3.961195511E-3
2.389146211E0,7.989247679E-4,2.130466048E-3,2.263620263E-3,3.209539384E-3
2.391679075E0,1.864157850E-3,2.130466048E-3,1.331541280E-4,2.834025422E-3
2.394212461E0,-2.663082560E-4,0.000000000E0,1.331541280E-4,2.977416816E-4
2.396746679E0,-1.331541222E-3,1.065233024E-3,-1.997311832E-3,2.626209812E-3
2.399283033E0,-1.331541222E-3,0.000000000E0,1.331541280E-4,1.338182367E-3
2.401811263E0,-1.331541222E-3,-1.065233024E-3,2.263620263E-3,2.834025426E-3
2.404346263E0,-3.462007269E-3,0.000000000E0,1.198387123E-3,3.663553743E-3
2.406878033E0,-1.331541222E-3,0.000000000E0,1.331541280E-4,1.338182367E-3
2.409411992E0,-1.331541222E-3,2.130466048E-3,-4.127778113E-3,4.832229274E-3
2.411957617E0,-1.331541222E-3,0.000000000E0,-9.320789250E-4,1.625353238E-3
2.414478971E0,-3.462007269E-3,1.065233024E-3,-9.320789250E-4,3.740185403E-3
2.417012617E0,-1.331541222E-3,-2.130466048E-3,-9.320789250E-4,2.679675116E-3
2.419546523E0,-2.663082560E-4,-3.195699072E-3,1.331541280E-4,3.209539323E-3
2.422080742E0,-1.331541222E-3,-3.195699072E-3,1.331541280E-4,3.464567015E-3
2.424607981E0,-2.663082560E-4,-2.130466048E-3,1.331541280E-4,2.151170772E-3
2.427146679E0,-2.663082560E-4,0.000000000E0,2.263620263E-3,2.279231621E-3
2.429678971E0,-3.462007269E-3,1.065233024E-3,1.331541280E-4,3.624630429E-3
2.432213658E0,-3.462007269E-3,0.000000000E0,1.331541280E-4,3.464566979E-3
2.434759856E0,-3.462007269E-3,-1.065233024E-3,1.198387123E-3,3.815278158E-3
2.437281471E0,-2.663082560E-4,-1.065233024E-3,1.198387123E-3,1.625353247E-3
2.439815794E0,2.929390874E-3,2.130466048E-3,1.198387123E-3,3.815278256E-3
2.442349544E0,2.929390874E-3,0.000000000E0,2.263620263E-3,3.702068015E-3
2.444883971E0,1.864157850E-3,-2.130466048E-3,1.331541280E-4,2.834025422E-3
2.447417044E0,-1.331541222E-3,3.195699072E-3,1.198387123E-3,3.663553777E-3
2.449951263E0,-2.663082560E-4,6.391398143E-3,1.331541280E-4,6.398329495E-3
2.452484648E0,-1.331541222E-3,1.065233024E-3,1.198387123E-3,2.084191718E-3
2.455018294E0,-2.663082560E-4,0.000000000E0,-9.320789250E-4,9.693767119E-4
2.457550638E0,3.994623665E-3,-1.065233024E-3,-3.062544856E-3,5.144989856E-3
2.460084231E0,-2.663082560E-4,1.065233024E-3,-9.320789250E-4,1.440282127E-3
2.462614231E0,1.864157850E-3,3.195699072E-3,1.331541280E-4,3.702067945E-3
2.465147356E0,-1.331541222E-3,1.065233024E-3,-9.320789250E-4,1.943320494E-3
2.467680950E0,-3.462007269E-3,2.130466048E-3,3.328853287E-3,5.254107357E-3
2.470213867E0,-2.663082560E-4,4.260932095E-3,2.263620263E-3,4.832229206E-3
2.472747461E0,-1.331541222E-3,0.000000000E0,-9.320789250E-4,1.625353238E-3
2.475280846E0,-1.331541222E-3,1.065233024E-3,1.331541280E-4,1.710395697E-3
2.477814231E0,-1.331541222E-3,2.130466048E-3,1.198387123E-3,2.783526415E-3
2.480350533E0,1.864157850E-3,2.130466048E-3,3.328853287E-3,4.369809409E-3
2.482877565E0,1.864157850E-3,0.000000000E0,4.394086078E-3,4.773162154E-3
2.485431940E0,7.989247679E-4,1.065233024E-3,3.328853287E-3,3.585284701E-3
2.487949023E0,2.929390874E-3,0.000000000E0,5.459319334E-3,6.195603158E-3
2.490479804E0,-1.331541222E-3,2.130466048E-3,3.328853287E-3,4.170509778E-3
2.493014492E0,-2.396774245E-3,0.000000000E0,1.331541280E-4,2.400470122E-3
2.495547825E0,1.864157850E-3,0.000000000E0,2.263620263E-3,2.932415589E-3
2.498081263E0,1.864157850E-3,1.065233024E-3,4.394086078E-3,4.890582618E-3
2.500615169E0,-2.663082560E-4,3.195699072E-3,3.328853287E-3,4.622193943E-3
2.503147200E0,-2.396774245E-3,-1.065233024E-3,1.331541280E-4,2.626209855E-3
2.505681106E0,-2.663082560E-4,-3.195699072E-3,1.198387123E-3,3.423382003E-3
2.508214492E0,2.929390874E-3,0.000000000E0,2.263620263E-3,3.702068015E-3
2.510746054E0,7.989247679E-4,2.130466048E-3,2.263620263E-3,3.209539384E-3
2.513279752E0,-2.396774245E-3,2.130466048E-3,3.328853287E-3,4.622193913E-3
2.515812513E0,-1.331541222E-3,0.000000000E0,5.459319334E-3,5.619356691E-3
2.518345377E0,-1.331541222E-3,-1.065233024E-3,1.198387123E-3,2.084191718E-3
2.520882304E0,-1.331541222E-3,0.000000000E0,-9.320789250E-4,1.625353238E-3
2.523412929E0,-2.396774245E-3,-1.065233024E-3,-9.320789250E-4,2.783526415E-3
2.525947408E0,-2.663082560E-4,-2.130466048E-3,1.198387123E-3,2.458848788E-3
2.528479752E0,-2.663082560E-4,-2.130466048E-3,3.328853287E-3,3.961195511E-3
2.531013606E0,7.989247679E-4,0.000000000E0,1.331541280E-4,8.099449404E-4
2.533546158E0,1.864157850E-3,2.130466048E-3,1.331541280E-4,2.834025422E-3
2.536078606E0,-2.663082560E-4,-1.065233024E-3,1.331541280E-4,1.106061257E-3
2.538613450E0,-1.331541222E-3,1.065233024E-3,1.331541280E-4,1.710395697E-3
2.541148346E0,7.989247679E-4,1.065233024E-3,1.331541280E-4,1.338182425E-3
2.543681992E0,-2.663082560E-4,-1.065233024E-3,-5.193010904E-3,5.307824764E-3
2.546214648E0,3.994623665E-3,-1.065233024E-3,-1.997311832E-3,4.591404379E-3
2.548748554E0,-2.396774245E-3,1.065233024E-3,1.331541280E-4,2.626209855E-3
2.551280117E0,-4.527240526E-3,0.000000000E0,-9.320789250E-4,4.622194057E-3
2.553813190E0,-2.663082560E-4,3.195699072E-3,1.331541280E-4,3.209539323E-3
2.556348450E0,-2.663082560E-4,3.195699072E-3,3.328853287E-3,4.622193943E-3
2.558880013E0,1.864157850E-3,-3.195699072E-3,1.198387123E-3,3.888921282E-3
2.561418138E0,-1.331541222E-3,0.000000000E0,2.263620263E-3,2.626209953E-3
2.563948294E0,-2.396774245E-3,4.260932095E-3,3.328853287E-3,5.914501949E-3
2.566482513E0,-2.396774245E-3,-2.130466048E-3,2.263620263E-3,3.925224714E-3
2.569015065E0,-1.331541222E-3,1.065233024E-3,-9.320789250E-4,1.943320494E-3
2.571547408E0,-2.663082560E-4,-2.130466048E-3,1.198387123E-3,2.458848788E-3
2.574079908E0,-1.331541222E-3,-1.065233024E-3,4.394086078E-3,4.713355055E-3
2.576614388E0,-2.663082560E-4,0.000000000E0,2.263620263E-3,2.279231621E-3
2.579146523E0,-6.657706574E-3,5.326164886E-3,1.331541280E-4,8.527063928E-3
2.581680065E0,-3.462007269E-3,5.326164886E-3,-9.320789250E-4,6.420459318E-3
2.584216054E0,-1.331541222E-3,1.065233024E-3,2.263620263E-3,2.834025426E-3
2.586754700E0,2.929390874E-3,-1.065233024E-3,5.459319334E-3,6.286510947E-3
2.589272200E0,2.929390874E-3,1.065233024E-3,1.198387123E-3,3.339488581E-3
2.591839388E0,1.864157850E-3,1.065233024E-3,1.198387123E-3,2.458848832E-3
2.594352877E0,-1.331541222E-3,2.130466048E-3,2.263620263E-3,3.381695477E-3
2.596871367E0,-2.663082560E-4,0.000000000E0,2.263620263E-3,2.279231621E-3
2.599439961E0,1.864157850E-3,1.065233024E-3,2.263620263E-3,3.119901053E-3
2.601957669E0,-1.331541222E-3,0.000000000E0,-1.997311832E-3,2.400470075E-3
2.604483346E0,-3.462007269E-3,1.065233024E-3,1.198387123E-3,3.815278158E-3
2.607041002E0,-3.462007269E-3,0.000000000E0,1.198387123E-3,3.663553743E-3
2.609552304E0,-2.663082560E-4,-1.065233024E-3,1.198387123E-3,1.625353247E-3
2.612074752E0,-1.331541222E-3,0.000000000E0,1.198387123E-3,1.791405515E-3
2.614617356E0,1.864157850E-3,1.065233024E-3,4.394086078E-3,4.890582618E-3
2.617173919E0,7.989247679E-4,-4.260932095E-3,1.198387123E-3,4.497772204E-3
2.619683658E0,-1.331541222E-3,-2.130466048E-3,1.198387123E-3,2.783526415E-3
2.622204596E0,-2.663082560E-4,0.000000000E0,1.331541280E-4,2.977416816E-4
2.624750638E0,-1.331541222E-3,2.130466048E-3,1.198387123E-3,2.783526415E-3
2.627273190E0,-1.331541222E-3,0.000000000E0,2.263620263E-3,2.626209953E-3
2.629820065E0,-2.396774245E-3,0.000000000E0,-9.320789250E-4,2.571633315E-3
2.632339961E0,-4.527240526E-3,3.195699072E-3,1.331541280E-4,5.543115492E-3
2.634869648E0,-2.396774245E-3,3.195699072E-3,1.331541280E-4,3.996842424E-3
2.637419908E0,-2.396774245E-3,1.065233024E-3,2.263620263E-3,3.464567054E-3
2.639951419E0,-3.462007269E-3,0.000000000E0,3.328853287E-3,4.802786539E-3
2.642470117E0,-2.396774245E-3,-1.065233024E-3,1.198387123E-3,2.883640039E-3
2.645019856E0,7.989247679E-4,-1.065233024E-3,3.328853287E-3,3.585284701E-3
2.647539648E0,-2.396774245E-3,2.130466048E-3,-9.320789250E-4,3.339488507E-3
2.650108138E0,1.864157850E-3,1.065233024E-3,1.198387123E-3,2.458848832E-3
2.652620117E0,3.994623665E-3,4.260932095E-3,2.263620263E-3,6.263907506E-3
2.655139544E0,7.989247679E-4,1.065233024E-3,1.198387123E-3,1.791405559E-3
2.657683815E0,7.989247679E-4,-1.065233024E-3,2.263620263E-3,2.626209983E-3
2.660205221E0,-2.663082560E-4,1.065233024E-3,-9.320789250E-4,1.440282127E-3
2.662753711E0,7.989247679E-4,2.130466048E-3,1.198387123E-3,2.571633345E-3
2.665285481E0,7.989247679E-4,0.000000000E0,1.198387123E-3,1.440282084E-3
2.667840950E0,-1.331541222E-3,-1.065233024E-3,1.198387123E-3,2.084191718E-3
2.670353346E0,7.989247679E-4,0.000000000E0,2.263620263E-3,2.400470262E-3
2.672872981E0,1.864157850E-3,1.065233024E-3,1.331541280E-4,2.151170822E-3
2.675404336E0,2.929390874E-3,0.000000000E0,2.263620263E-3,3.702068015E-3
2.677952408E0,2.929390874E-3,2.130466048E-3,1.331541280E-4,3.624630532E-3
2.680472877E0,7.989247679E-4,4.260932095E-3,2.263620263E-3,4.890582767E-3
2.683023502E0,-2.396774245E-3,3.195699072E-3,1.198387123E-3,4.170509685E-3
2.685540638E0,-1.331541222E-3,-1.065233024E-3,1.331541280E-4,1.710395697E-3
2.688107981E0,3.994623665E-3,2.130466048E-3,-9.320789250E-4,4.622193735E-3
2.690619544E0,1.864157850E-3,0.000000000E0,1.331541280E-4,1.868907304E-3
2.693155325E0,-2.663082560E-4,-2.130466048E-3,2.263620263E-3,3.119901018E-3
2.695682096E0,7.989247679E-4,0.000000000E0,1.198387123E-3,1.440282084E-3
2.698217565E0,-4.527240526E-3,2.130466048E-3,1.331541280E-4,5.005249482E-3
2.700751523E0,-2.396774245E-3,1.065233024E-3,2.263620263E-3,3.464567054E-3
2.703284596E0,-2.396774245E-3,0.000000000E0,1.331541280E-4,2.400470122E-3
2.705816679E0,-1.331541222E-3,3.195699072E-3,3.328853287E-3,4.802786565E-3
2.708350846E0,7.989247679E-4,0.000000000E0,2.263620263E-3,2.400470262E-3
2.710884752E0,2.929390874E-3,0.000000000E0,1.198387123E-3,3.165037533E-3
2.713417356E0,7.989247679E-4,3.195699072E-3,1.198387123E-3,3.505268183E-3
2.715952825E0,-3.462007269E-3,-2.130466048E-3,2.263620263E-3,4.652779450E-3
2.718485429E0,7.989247679E-4,0.000000000E0,-9.320789250E-4,1.227620425E-3
2.721017669E0,2.929390874E-3,2.130466048E-3,1.331541280E-4,3.624630532E-3
2.723554596E0,-1.331541222E-3,1.065233024E-3,1.198387123E-3,2.084191718E-3
2.726087617E0,-1.331541222E-3,4.260932095E-3,2.263620263E-3,5.005249349E-3
2.728618919E0,7.989247679E-4,3.195699072E-3,2.263620263E-3,3.996842508E-3
2.731151263E0,1.864157850E-3,2.130466048E-3,2.263620263E-3,3.624630569E-3
2.733685169E0,1.864157850E-3,3.195699072E-3,-1.997311832E-3,4.204382428E-3
2.736218815E0,-3.462007269E-3,-1.065233024E-3,1.331541280E-4,3.624630429E-3
2.738752148E0,-1.331541222E-3,-1.065233024E-3,1.198387123E-3,2.084191718E-3
2.741285221E0,-2.663082560E-4,-1.065233024E-3,1.198387123E-3,1.625353247E-3
2.743812669E0,7.989247679E-4,1.065233024E-3,1.331541280E-4,1.338182425E-3
2.746352513E0,2.929390874E-3,2.130466048E-3,-9.320789250E-4,3.740185503E-3
2.748885586E0,1.864157850E-3,-1.065233024E-3,1.198387123E-3,2.458848832E-3
2.751422669E0,-2.663082560E-4,-2.130466048E-3,1.198387123E-3,2.458848788E-3
2.753957044E0,-2.663082560E-4,1.065233024E-3,1.331541280E-4,1.106061257E-3
2.756490429E0,-1.331541222E-3,0.000000000E0,-9.320789250E-4,1.625353238E-3
2.759023033E0,1.864157850E-3,2.130466048E-3,1.331541280E-4,2.834025422E-3
2.761556367E0,-2.663082560E-4,1.065233024E-3,-9.320789250E-4,1.440282127E-3
2.764092981E0,7.989247679E-4,-1.065233024E-3,1.198387123E-3,1.791405559E-3
2.766622148E0,3.994623665E-3,-2.130466048E-3,2.263620263E-3,5.061608489E-3
2.769157825E0,1.864157850E-3,-1.065233024E-3,1.331541280E-4,2.151170822E-3
2.771686054E0,-2.396774245E-3,0.000000000E0,-9.320789250E-4,2.571633315E-3
2.774219440E0,2.929390874E-3,2.130466048E-3,1.331541280E-4,3.624630532E-3
2.776752773E0,1.864157850E-3,2.130466048E-3,2.263620263E-3,3.624630569E-3
2.779286419E0,-2.396774245E-3,1.065233024E-3,2.263620263E-3,3.464567054E-3
2.781824023E0,-2.663082560E-4,3.195699072E-3,3.328853287E-3,4.622193943E-3
2.784356836E0,-2.396774245E-3,3.195699072E-3,1.198387123E-3,4.170509685E-3
2.786886106E0,-3.462007269E-3,2.130466048E-3,2.263620263E-3,4.652779450E-3
2.789420533E0,2.929390874E-3,0.000000000E0,-9.320789250E-4,3.074101822E-3
2.791953294E0,-2.396774245E-3,1.065233024E-3,1.198387123E-3,2.883640039E-3
2.794487565E0,-2.396774245E-3,0.000000000E0,1.331541280E-4,2.400470122E-3
2.797019856E0,7.989247679E-4,2.130466048E-3,-1.997311832E-3,3.027609770E-3
2.799553502E0,-2.663082560E-4,3.195699072E-3,1.198387123E-3,3.423382003E-3
2.802084752E0,2.929390874E-3,1.065233024E-3,2.263620263E-3,3.852275818E-3
2.804623242E0,-2.663082560E-4,0.000000000E0,3.328853287E-3,3.339488627E-3
2.807155429E0,-2.396774245E-3,0.000000000E0,1.331541280E-4,2.400470122E-3
2.809686211E0,1.864157850E-3,2.130466048E-3,3.328853287E-3,4.369809409E-3
2.812221211E0,-1.331541222E-3,2.130466048E-3,3.328853287E-3,4.170509778E-3
2.814754023E0,1.864157850E-3,0.000000000E0,1.331541280E-4,1.868907304E-3
2.817287617E0,-2.396774245E-3,0.000000000E0,1.198387123E-3,2.679675070E-3
2.819819440E0,-1.331541222E-3,1.065233024E-3,2.263620263E-3,2.834025426E-3
2.822353606E0,7.989247679E-4,0.000000000E0,1.331541280E-4,8.099449404E-4
2.824886992E0,7.989247679E-4,0.000000000E0,1.331541280E-4,8.099449404E-4
2.827420638E0,-2.663082560E-4,0.000000000E0,1.198387123E-3,1.227620374E-3
2.829954231E0,1.864157850E-3,-1.065233024E-3,1.198387123E-3,2.458848832E-3
2.832491002E0,-1.331541222E-3,-1.065233024E-3,1.331541280E-4,1.710395697E-3
2.835024648E0,-3.462007269E-3,1.065233024E-3,-1.997311832E-3,4.136359545E-3
2.837558242E0,-1.331541222E-3,-1.065233024E-3,-9.320789250E-4,1.943320494E-3
2.840091419E0,-2.396774245E-3,0.000000000E0,1.198387123E-3,2.679675070E-3
2.842620586E0,-1.331541222E-3,0.000000000E0,1.331541280E-4,1.338182367E-3
2.845169075E0,1.864157850E-3,-1.065233024E-3,-9.320789250E-4,2.340636026E-3
2.847686627E0,2.929390874E-3,0.000000000E0,2.263620263E-3,3.702068015E-3
2.850223919E0,7.989247679E-4,5.326164886E-3,2.263620263E-3,5.842113477E-3
2.852757252E0,6.125089712E-3,2.130466048E-3,1.331541280E-4,6.486396502E-3
2.855279544E0,2.929390874E-3,-1.065233024E-3,-9.320789250E-4,3.253432558E-3
2.857826940E0,-2.663082560E-4,0.000000000E0,3.328853287E-3,3.339488627E-3
2.860357721E0,-1.331541222E-3,2.130466048E-3,2.263620263E-3,3.381695477E-3
2.862891836E0,-2.663082560E-4,0.000000000E0,-9.320789250E-4,9.693767119E-4
2.865425690E0,-2.663082560E-4,-2.130466048E-3,3.328853287E-3,3.961195511E-3
2.867970638E0,-2.663082560E-4,0.000000000E0,1.198387123E-3,1.227620374E-3
2.870486992E0,7.989247679E-4,0.000000000E0,2.263620263E-3,2.400470262E-3
2.873021992E0,7.989247679E-4,-4.260932095E-3,-3.062544856E-3,5.307824800E-3
2.875555065E0,3.994623665E-3,-1.065233024E-3,1.331541280E-4,4.136359467E-3
2.878087408E0,-2.663082560E-4,1.065233024E-3,-9.320789250E-4,1.440282127E-3
2.880621836E0,-2.663082560E-4,2.130466048E-3,2.263620263E-3,3.119901018E-3
2.883158815E0,1.864157850E-3,0.000000000E0,2.263620263E-3,2.932415589E-3
2.885694908E0,7.989247679E-4,-2.130466048E-3,3.328853287E-3,4.032174422E-3
2.888224544E0,1.864157850E-3,1.065233024E-3,-9.320789250E-4,2.340636026E-3
2.890754283E0,-2.663082560E-4,0.000000000E0,-9.320789250E-4,9.693767119E-4
2.893288711E0,1.864157850E-3,-1.065233024E-3,5.459319334E-3,5.866342428E-3
2.895825481E0,1.864157850E-3,1.065233024E-3,1.198387123E-3,2.458848832E-3
2.898354961E0,7.989247679E-4,-1.065233024E-3,2.263620263E-3,2.626209983E-3
2.900887825E0,7.989247679E-4,-2.130466048E-3,-9.320789250E-4,2.458848813E-3
2.903425638E0,-2.663082560E-4,-1.065233024E-3,1.331541280E-4,1.106061257E-3
2.905959023E0,-1.331541222E-3,0.000000000E0,1.331541280E-4,1.338182367E-3
2.908492356E0,-2.663082560E-4,-1.065233024E-3,-9.320789250E-4,1.440282127E-3
2.911025794E0,-2.663082560E-4,-1.065233024E-3,-9.320789250E-4,1.440282127E-3
2.913559388E0,-5.592473317E-3,0.000000000E0,1.331541280E-4,5.594058261E-3
2.916091992E0,-1.331541222E-3,4.260932095E-3,-1.997311832E-3,4.890582675E-3
2.918626106E0,7.989247679E-4,2.130466048E-3,-3.062544856E-3,3.815278150E-3
2.921154856E0,-2.663082560E-4,1.065233024E-3,1.331541280E-4,1.106061257E-3
2.923688502E0,-1.331541222E-3,3.195699072E-3,1.331541280E-4,3.464567015E-3
2.926223867E0,7.989247679E-4,2.130466048E-3,-9.320789250E-4,2.458848813E-3
2.928754700E0,-2.663082560E-4,0.000000000E0,1.198387123E-3,1.227620374E-3
2.931289908E0,7.989247679E-4,-2.130466048E-3,1.198387123E-3,2.571633345E-3
2.933822252E0,-2.396774245E-3,1.065233024E-3,1.331541280E-4,2.626209855E-3
2.936355065E0,-3.462007269E-3,0.000000000E0,3.328853287E-3,4.802786539E-3
2.938888190E0,7.989247679E-4,-1.065233024E-3,1.331541280E-4,1.338182425E-3
2.941421575E0,-3.462007269E-3,3.195699072E-3,1.331541280E-4,4.713355165E-3
2.943956263E0,-1.331541222E-3,1.065233024E-3,1.198387123E-3,2.084191718E-3
2.946496002E0,3.994623665E-3,-2.130466048E-3,1.198387123E-3,4.683165116E-3
2.949021940E0,5.059856921E-3,0.000000000E0,1.198387123E-3,5.199834974E-3
2.951559492E0,-2.396774245E-3,1.065233024E-3,4.394086078E-3,5.117347031E-3
2.954092877E0,-1.331541222E-3,1.065233024E-3,1.198387123E-3,2.084191718E-3
2.956626523E0,1.864157850E-3,-1.065233024E-3,1.331541280E-4,2.151170822E-3
2.959160638E0,3.994623665E-3,-1.065233024E-3,1.198387123E-3,4.304401389E-3
2.961689179E0,2.929390874E-3,2.130466048E-3,1.198387123E-3,3.815278256E-3
2.964222513E0,-1.331541222E-3,5.326164886E-3,1.331541280E-4,5.491699595E-3
2.966758086E0,-2.396774245E-3,2.130466048E-3,2.263620263E-3,3.925224714E-3
2.969289283E0,-2.396774245E-3,1.065233024E-3,1.331541280E-4,2.626209855E-3
2.971822929E0,-4.527240526E-3,0.000000000E0,-1.997311832E-3,4.948248310E-3
2.974356315E0,-2.396774245E-3,0.000000000E0,3.328853287E-3,4.101925278E-3
2.976889440E0,3.994623665E-3,1.065233024E-3,1.331541280E-4,4.136359467E-3
2.979423033E0,-2.663082560E-4,-2.130466048E-3,3.328853287E-3,3.961195511E-3
2.981960586E0,-3.462007269E-3,-1.065233024E-3,1.198387123E-3,3.815278158E-3
2.984493971E0,7.989247679E-4,1.065233024E-3,1.198387123E-3,1.791405559E-3
2.987027096E0,3.994623665E-3,1.065233024E-3,1.331541280E-4,4.136359467E-3
2.989561211E0,7.989247679E-4,-1.065233024E-3,-9.320789250E-4,1.625353285E-3
2.992090481E0,-3.462007269E-3,3.195699072E-3,2.263620263E-3,5.227041571E-3
2.994623294E0,-3.462007269E-3,0.000000000E0,2.263620263E-3,4.136359635E-3
2.997149388E0,-3.462007269E-3,1.065233024E-3,1.198387123E-3,3.815278158E-3
2.999690065E0,-1.331541222E-3,3.195699072E-3,1.198387123E-3,3.663553777E-3
3.002227044E0,-2.663082560E-4,-2.130466048E-3,-9.320789250E-4,2.340635980E-3
3.004760690E0,-2.663082560E-4,-3.195699072E-3,1.198387123E-3,3.423382003E-3
3.007297304E0,-2.663082560E-4,2.130466048E-3,2.263620263E-3,3.119901018E-3
3.009826888E0,-2.396774245E-3,1.065233024E-3,-1.997311832E-3,3.296741230E-3
3.012340950E0,-3.462007269E-3,2.130466048E-3,1.331541280E-4,4.067199274E-3
3.014893971E0,-2.396774245E-3,1.065233024E-3,1.331541280E-4,2.626209855E-3
3.017427617E0,-2.396774245E-3,-2.130466048E-3,1.198387123E-3,3.423381962E-3
3.019962044E0,-2.396774245E-3,-3.195699072E-3,1.198387123E-3,4.170509685E-3
3.022490221E0,7.989247679E-4,1.065233024E-3,1.331541280E-4,1.338182425E-3
3.025023294E0,-3.462007269E-3,0.000000000E0,1.198387123E-3,3.663553743E-3
3.027557721E0,-2.663082560E-4,0.000000000E0,-9.320789250E-4,9.693767119E-4
3.030090065E0,7.989247679E-4,2.130466048E-3,1.331541280E-4,2.279231534E-3
3.032624388E0,7.989247679E-4,3.195699072E-3,1.198387123E-3,3.505268183E-3
3.035156783E0,2.929390874E-3,1.065233024E-3,3.328853287E-3,4.560407492E-3
3.037690429E0,-1.331541222E-3,0.000000000E0,1.331541280E-4,1.338182367E-3
3.040224283E0,-2.396774245E-3,-3.195699072E-3,-9.320789250E-4,4.101925214E-3
3.042761888E0,-2.663082560E-4,0.000000000E0,-9.320789250E-4,9.693767119E-4
3.045294492E0,7.989247679E-4,-2.130466048E-3,1.198387123E-3,2.571633345E-3
3.047836627E0,-2.663082560E-4,3.195699072E-3,1.198387123E-3,3.423382003E-3
3.050361002E0,7.989247679E-4,5.326164886E-3,-1.997311832E-3,5.744176855E-3
3.052894908E0,-2.663082560E-4,1.065233024E-3,1.331541280E-4,1.106061257E-3
3.055428033E0,-2.663082560E-4,-1.065233024E-3,1.331541280E-4,1.106061257E-3
3.057965013E0,1.864157850E-3,-1.065233024E-3,-9.320789250E-4,2.340636026E-3
3.060496002E0,7.989247679E-4,2.130466048E-3,3.328853287E-3,4.032174422E-3
3.063028346E0,-2.396774245E-3,1.065233024E-3,5.459319334E-3,6.056683562E-3
3.065561523E0,-4.527240526E-3,0.000000000E0,-9.320789250E-4,4.622194057E-3
3.068094596E0,-1.331541222E-3,1.065233024E-3,2.263620263E-3,2.834025426E-3
3.070626158E0,-2.663082560E-4,1.065233024E-3,4.394086078E-3,4.529197936E-3
3.073157513E0,-2.663082560E-4,-1.065233024E-3,4.394086078E-3,4.529197936E-3
3.075691627E0,2.929390874E-3,0.000000000E0,3.328853287E-3,4.434252485E-3
3.078225013E0,-2.663082560E-4,1.065233024E-3,1.331541280E-4,1.106061257E-3
3.080757096E0,-1.331541222E-3,2.130466048E-3,-3.062544856E-3,3.961195350E-3
3.083291992E0,7.989247679E-4,2.130466048E-3,1.198387123E-3,2.571633345E-3
3.085824075E0,2.929390874E-3,0.000000000E0,-9.320789250E-4,3.074101822E-3
3.088364388E0,3.994623665E-3,1.065233024E-3,-9.320789250E-4,4.237984278E-3
3.090894492E0,7.989247679E-4,1.065233024E-3,1.198387123E-3,1.791405559E-3
3.093428658E0,1.864157850E-3,0.000000000E0,1.331541280E-4,1.868907304E-3
3.095962877E0,3.994623665E-3,-2.130466048E-3,1.198387123E-3,4.683165116E-3
3.098512148E0,1.864157850E-3,-1.065233024E-3,1.331541280E-4,2.151170822E-3
3.101029336E0,-2.396774245E-3,0.000000000E0,-9.320789250E-4,2.571633315E-3
3.103562981E0,-1.331541222E-3,2.130466048E-3,1.198387123E-3,2.783526415E-3
3.106095533E0,7.989247679E-4,0.000000000E0,1.198387123E-3,1.440282084E-3
3.108629700E0,7.989247679E-4,2.130466048E-3,1.331541280E-4,2.279231534E-3
3.111157148E0,-2.663082560E-4,-2.130466048E-3,1.331541280E-4,2.151170772E-3
3.113694700E0,-2.396774245E-3,-2.130466048E-3,1.198387123E-3,3.423381962E-3
3.116225169E0,-1.331541222E-3,0.000000000E0,-9.320789250E-4,1.625353238E-3
3.118758502E0,7.989247679E-4,0.000000000E0,2.263620263E-3,2.400470262E-3
3.121292148E0,-2.663082560E-4,-1.065233024E-3,2.263620263E-3,2.515873243E-3
3.123825586E0,-4.527240526E-3,-1.065233024E-3,1.331541280E-4,4.652779620E-3
3.126359179E0,-2.396774245E-3,2.130466048E-3,1.331541280E-4,3.209539279E-3
3.128898138E0,7.989247679E-4,1.065233024E-3,1.331541280E-4,1.338182425E-3
3.131424700E0,-2.663082560E-4,-3.195699072E-3,1.331541280E-4,3.209539323E-3
3.133959336E0,1.864157850E-3,0.000000000E0,3.328853287E-3,3.815278325E-3
3.136492669E0,7.989247679E-4,1.065233024E-3,2.263620263E-3,2.626209983E-3
3.139025325E0,7.989247679E-4,0.000000000E0,1.331541280E-4,8.099449404E-4
3.141562877E0,-2.663082560E-4,-1.065233024E-3,1.331541280E-4,1.106061257E-3
3.144096783E0,1.864157850E-3,-1.065233024E-3,1.198387123E-3,2.458848832E-3
3.146630586E0,1.864157850E-3,3.195699072E-3,2.263620263E-3,4.337228809E-3
3.149160950E0,-2.396774245E-3,0.000000000E0,1.331541280E-4,2.400470122E-3
3.151696627E0,-3.462007269E-3,-1.065233024E-3,1.331541280E-4,3.624630429E-3
3.154229492E0,-1.331541222E-3,3.195699072E-3,-3.062544856E-3,4.622193806E-3
3.156764127E0,1.864157850E-3,2.130466048E-3,-9.320789250E-4,2.980392792E-3
3.159296731E0,5.059856921E-3,0.000000000E0,3.328853287E-3,6.056683603E-3
3.161826471E0,-1.331541222E-3,1.065233024E-3,2.263620263E-3,2.834025426E-3
3.164359648E0,-2.663082560E-4,0.000000000E0,1.331541280E-4,2.977416816E-4
3.166892929E0,7.989247679E-4,0.000000000E0,-1.997311832E-3,2.151170691E-3
3.169428763E0,1.864157850E-3,1.065233024E-3,1.198387123E-3,2.458848832E-3
3.171955533E0,-2.396774245E-3,-2.130466048E-3,2.263620263E-3,3.925224714E-3
3.174492356E0,-5.592473317E-3,-3.195699072E-3,1.331541280E-4,6.442513514E-3
3.177026471E0,-3.462007269E-3,-2.130466048E-3,1.198387123E-3,4.237984380E-3
3.179559023E0,-2.396774245E-3,7.456631400E-3,-9.320789250E-4,7.887626369E-3
3.182093294E0,-1.331541222E-3,2.130466048E-3,-9.320789250E-4,2.679675116E-3
3.184627461E0,1.864157850E-3,3.195699072E-3,2.263620263E-3,4.337228809E-3
3.187159961E0,3.994623665E-3,0.000000000E0,1.198387123E-3,4.170509551E-3
3.189691263E0,-1.331541222E-3,-1.065233024E-3,3.328853287E-3,3.740185507E-3
3.192226992E0,-1.331541222E-3,-1.065233024E-3,3.328853287E-3,3.740185507E-3
3.194759336E0,3.994623665E-3,1.065233024E-3,1.331541280E-4,4.136359467E-3
3.197294023E0,2.929390874E-3,2.130466048E-3,-1.997311832E-3,4.136359635E-3
3.199823554E0,-1.331541222E-3,0.000000000E0,1.331541280E-4,1.338182367E-3
3.202364908E0,-1.331541222E-3,0.000000000E0,1.198387123E-3,1.791405515E-3
3.204897773E0,7.989247679E-4,1.065233024E-3,1.198387123E-3,1.791405559E-3
3.207430377E0,7.989247679E-4,1.065233024E-3,4.394086078E-3,4.591404430E-3
3.209966992E0,5.059856921E-3,1.065233024E-3,3.328853287E-3,6.149645328E-3
3.212512773E0,1.864157850E-3,0.000000000E0,1.331541280E-4,1.868907304E-3
3.215031263E0,-3.462007269E-3,-1.065233024E-3,1.198387123E-3,3.815278158E-3
3.217563919E0,-2.396774245E-3,3.195699072E-3,2.263620263E-3,4.591404582E-3
3.220097877E0,1.864157850E-3,1.065233024E-3,2.263620263E-3,3.119901053E-3
3.222627044E0,-2.663082560E-4,-2.130466048E-3,1.331541280E-4,2.151170772E-3
3.225160377E0,-2.663082560E-4,1.065233024E-3,-9.320789250E-4,1.440282127E-3
3.227693711E0,7.989247679E-4,0.000000000E0,1.198387123E-3,1.440282084E-3
3.230226627E0,-2.663082560E-4,-1.065233024E-3,3.328853287E-3,3.505268276E-3
3.232761054E0,-2.663082560E-4,1.065233024E-3,3.328853287E-3,3.505268276E-3
3.235294179E0,-2.663082560E-4,-2.130466048E-3,3.328853287E-3,3.961195511E-3
3.237827252E0,-1.331541222E-3,0.000000000E0,-1.997311832E-3,2.400470075E-3
3.240363502E0,-2.663082560E-4,2.130466048E-3,1.198387123E-3,2.458848788E-3
3.242897877E0,2.929390874E-3,2.130466048E-3,2.263620263E-3,4.271322180E-3
3.245431315E0,-2.663082560E-4,2.130466048E-3,1.331541280E-4,2.151170772E-3
3.247964700E0,-2.663082560E-4,0.000000000E0,1.331541280E-4,2.977416816E-4
3.250506836E0,-2.663082560E-4,-2.130466048E-3,-1.997311832E-3,2.932415425E-3
3.253018242E0,7.989247679E-4,0.000000000E0,-9.320789250E-4,1.227620425E-3
3.255564544E0,1.864157850E-3,2.130466048E-3,1.198387123E-3,3.074101782E-3
3.258098450E0,-2.663082560E-4,0.000000000E0,1.331541280E-4,2.977416816E-4
3.260630794E0,5.059856921E-3,-3.195699072E-3,2.263620263E-3,6.398329572E-3
3.263162096E0,-2.663082560E-4,0.000000000E0,3.328853287E-3,3.339488627E-3
3.265694179E0,-3.462007269E-3,0.000000000E0,-9.320789250E-4,3.585284571E-3
3.268228346E0,-1.331541222E-3,3.195699072E-3,-3.062544856E-3,4.622193806E-3
3.270761731E0,-2.663082560E-4,4.260932095E-3,1.331541280E-4,4.271322094E-3
3.273295846E0,7.989247679E-4,7.456631400E-3,-9.320789250E-4,7.557010238E-3
3.275831315E0,-1.331541222E-3,2.130466048E-3,1.331541280E-4,2.515873134E-3
3.278361575E0,7.989247679E-4,0.000000000E0,-1.997311832E-3,2.151170691E-3
3.280893919E0,-2.396774245E-3,1.065233024E-3,-9.320789250E-4,2.783526415E-3
3.283427565E0,-2.663082560E-4,2.130466048E-3,1.198387123E-3,2.458848788E-3
3.285962773E0,-2.663082560E-4,3.195699072E-3,1.331541280E-4,3.209539323E-3
3.288495065E0,-1.331541222E-3,1.065233024E-3,1.198387123E-3,2.084191718E-3
3.291035898E0,-1.331541222E-3,2.130466048E-3,2.263620263E-3,3.381695477E-3
3.293564961E0,-1.331541222E-3,1.065233024E-3,1.331541280E-4,1.710395697E-3
3.296098815E0,7.989247679E-4,0.000000000E0,2.263620263E-3,2.400470262E-3
3.298632513E0,7.989247679E-4,-1.065233024E-3,2.263620263E-3,2.626209983E-3
3.301153033E0,1.864157850E-3,-1.065233024E-3,3.328853287E-3,3.961195538E-3
3.303699544E0,-2.663082560E-4,-2.130466048E-3,1.198387123E-3,2.458848788E-3
3.306233190E0,7.989247679E-4,-2.130466048E-3,1.331541280E-4,2.279231534E-3
3.308766315E0,-2.663082560E-4,4.260932095E-3,1.331541280E-4,4.271322094E-3
3.311296523E0,-1.331541222E-3,1.065233024E-3,2.263620263E-3,2.834025426E-3
3.313831211E0,7.989247679E-4,-3.195699072E-3,2.263620263E-3,3.996842508E-3
3.316361471E0,-2.396774245E-3,3.195699072E-3,-9.320789250E-4,4.101925214E-3
3.318896106E0,7.989247679E-4,3.195699072E-3,1.198387123E-3,3.505268183E-3
3.321428450E0,7.989247679E-4,0.000000000E0,2.263620263E-3,2.400470262E-3
3.323963190E0,-2.396774245E-3,1.065233024E-3,1.198387123E-3,2.883640039E-3
3.326496054E0,7.989247679E-4,1.065233024E-3,1.331541280E-4,1.338182425E-3
3.329028867E0,6.125089712E-3,2.130466048E-3,1.331541280E-4,6.486396502E-3
3.331565013E0,-3.462007269E-3,1.065233024E-3,1.198387123E-3,3.815278158E-3
3.334095377E0,2.929390874E-3,-2.130466048E-3,1.198387123E-3,3.815278256E-3
3.336629283E0,-2.663082560E-4,-1.065233024E-3,2.263620263E-3,2.515873243E-3
3.339161575E0,7.989247679E-4,0.000000000E0,4.394086078E-3,4.466125082E-3
3.341699648E0,-2.663082560E-4,0.000000000E0,1.198387123E-3,1.227620374E-3
3.344233033E0,-2.663082560E-4,2.130466048E-3,1.331541280E-4,2.151170772E-3
3.346761992E0,-1.331541222E-3,2.130466048E-3,1.198387123E-3,2.783526415E-3
3.349296940E0,2.929390874E-3,3.195699072E-3,1.198387123E-3,4.497772242E-3
3.351826940E0,-2.396774245E-3,2.130466048E-3,1.198387123E-3,3.423381962E-3
3.354364179E0,-4.527240526E-3,0.000000000E0,-1.997311832E-3,4.948248310E-3
3.356895481E0,-2.663082560E-4,0.000000000E0,-1.997311832E-3,2.014987504E-3
3.359433554E0,-1.331541222E-3,0.000000000E0,2.263620263E-3,2.626209953E-3
3.361958711E0,-2.663082560E-4,-1.065233024E-3,1.198387123E-3,1.625353247E-3
3.364500065E0,-1.331541222E-3,-1.065233024E-3,-9.320789250E-4,1.943320494E-3
3.367032929E0,7.989247679E-4,0.000000000E0,-1.997311832E-3,2.151170691E-3
3.369566836E0,-2.663082560E-4,-2.130466048E-3,-3.062544856E-3,3.740185378E-3
3.372099283E0,-3.462007269E-3,1.065233024E-3,1.198387123E-3,3.815278158E-3
3.374629908E0,-2.663082560E-4,0.000000000E0,2.263620263E-3,2.279231621E-3
3.377163294E0,7.989247679E-4,0.000000000E0,1.331541280E-4,8.099449404E-4
3.379696471E0,-3.462007269E-3,0.000000000E0,-9.320789250E-4,3.585284571E-3
3.382229283E0,-1.331541222E-3,0.000000000E0,1.331541280E-4,1.338182367E-3
3.384763190E0,-2.396774245E-3,1.065233024E-3,1.331541280E-4,2.626209855E-3
3.387296992E0,7.989247679E-4,-1.065233024E-3,-1.997311832E-3,2.400470107E-3
3.389829700E0,2.929390874E-3,0.000000000E0,-9.320789250E-4,3.074101822E-3
3.392362773E0,7.989247679E-4,-1.065233024E-3,-9.320789250E-4,1.625353285E-3
3.394895638E0,-2.663082560E-4,0.000000000E0,1.331541280E-4,2.977416816E-4
3.397430325E0,7.989247679E-4,2.130466048E-3,-9.320789250E-4,2.458848813E-3
3.399964231E0,-2.663082560E-4,3.195699072E-3,-9.320789250E-4,3.339488548E-3
3.402491471E0,-1.331541222E-3,0.000000000E0,1.331541280E-4,1.338182367E-3
3.405027304E0,-2.396774245E-3,-1.065233024E-3,2.263620263E-3,3.464567054E-3
3.407564075E0,7.989247679E-4,-1.065233024E-3,2.263620263E-3,2.626209983E-3
3.410096679E0,7.989247679E-4,-1.065233024E-3,2.263620263E-3,2.626209983E-3
3.412637461E0,-2.663082560E-4,-2.130466048E-3,-1.997311832E-3,2.932415425E-3
3.415163190E0,-2.396774245E-3,3.195699072E-3,1.198387123E-3,4.170509685E-3
3.417696263E0,-1.331541222E-3,0.000000000E0,1.331541280E-4,1.338182367E-3
3.420230481E0,1.864157850E-3,-1.065233024E-3,1.198387123E-3,2.458848832E-3
3.422763086E0,1.864157850E-3,0.000000000E0,1.331541280E-4,1.868907304E-3
3.425298033E0,-1.331541222E-3,1.065233024E-3,-9.320789250E-4,1.943320494E-3
3.427830638E0,-1.331541222E-3,0.000000000E0,1.198387123E-3,1.791405515E-3
3.430364752E0,-2.663082560E-4,2.130466048E-3,1.331541280E-4,2.151170772E-3
3.432896783E0,7.989247679E-4,-2.130466048E-3,-9.320789250E-4,2.458848813E-3
3.435430950E0,-1.331541222E-3,-3.195699072E-3,1.331541280E-4,3.464567015E-3
3.437964908E0,7.989247679E-4,3.195699072E-3,-9.320789250E-4,3.423382021E-3
3.440497252E0,-2.663082560E-4,4.260932095E-3,-9.320789250E-4,4.369809324E-3
3.443032408E0,-2.663082560E-4,0.000000000E0,1.198387123E-3,1.227620374E-3
3.445564752E0,-1.331541222E-3,0.000000000E0,-9.320789250E-4,1.625353238E-3
3.448097617E0,-3.462007269E-3,0.000000000E0,1.198387123E-3,3.663553743E-3
3.450630429E0,-3.462007269E-3,-1.065233024E-3,2.263620263E-3,4.271322093E-3
3.453168398E0,1.864157850E-3,1.065233024E-3,3.328853287E-3,3.961195538E-3
3.455696992E0,-1.331541222E-3,5.326164886E-3,1.198387123E-3,5.619356379E-3
3.458230794E0,7.989247679E-4,1.065233024E-3,3.328853287E-3,3.585284701E-3
3.460764440E0,7.989247679E-4,-1.065233024E-3,3.328853287E-3,3.585284701E-3
3.463300429E0,1.864157850E-3,1.065233024E-3,1.198387123E-3,2.458848832E-3
3.465831992E0,-1.331541222E-3,3.195699072E-3,1.331541280E-4,3.464567015E-3
3.468363815E0,1.864157850E-3,-2.130466048E-3,-3.062544856E-3,4.170509689E-3
3.470898033E0,3.994623665E-3,0.000000000E0,1.331541280E-4,3.996842284E-3
3.473431367E0,-3.462007269E-3,4.260932095E-3,1.331541280E-4,5.491699798E-3
3.475962408E0,-3.462007269E-3,2.130466048E-3,1.331541280E-4,4.067199274E-3
3.478498919E0,-2.663082560E-4,1.065233024E-3,4.394086078E-3,4.529197936E-3
3.481032356E0,-1.331541222E-3,1.065233024E-3,1.198387123E-3,2.084191718E-3
3.483565690E0,-1.331541222E-3,1.065233024E-3,1.331541280E-4,1.710395697E-3
3.486097252E0,-1.331541222E-3,-1.065233024E-3,1.198387123E-3,2.084191718E-3
3.488632148E0,1.864157850E-3,-2.130466048E-3,-1.997311832E-3,3.464567018E-3
3.491163658E0,3.994623665E-3,1.065233024E-3,3.328853287E-3,5.307824773E-3
3.493701575E0,1.864157850E-3,0.000000000E0,5.459319334E-3,5.768817217E-3
3.496231211E0,1.864157850E-3,-1.065233024E-3,4.394086078E-3,4.890582618E-3
3.498766211E0,7.989247679E-4,0.000000000E0,2.263620263E-3,2.400470262E-3
3.501299283E0,7.989247679E-4,0.000000000E0,1.331541280E-4,8.099449404E-4
3.503832461E0,-1.331541222E-3,1.065233024E-3,-9.320789250E-4,1.943320494E-3
3.506365325E0,1.864157850E-3,-1.065233024E-3,1.198387123E-3,2.458848832E-3
3.508898190E0,7.989247679E-4,-2.130466048E-3,1.198387123E-3,2.571633345E-3
3.511432252E0,-2.396774245E-3,-4.260932095E-3,2.263620263E-3,5.387396941E-3
3.513965898E0,-2.396774245E-3,-2.130466048E-3,1.331541280E-4,3.209539279E-3
3.516498450E0,7.989247679E-4,1.065233024E-3,-9.320789250E-4,1.625353285E-3
3.519033190E0,2.929390874E-3,1.065233024E-3,1.331541280E-4,3.119901009E-3
3.521565013E0,7.989247679E-4,1.065233024E-3,1.198387123E-3,1.791405559E-3
3.524098606E0,-2.663082560E-4,1.065233024E-3,2.263620263E-3,2.515873243E-3
3.526632773E0,7.989247679E-4,0.000000000E0,1.331541280E-4,8.099449404E-4
3.529163606E0,7.989247679E-4,1.065233024E-3,1.331541280E-4,1.338182425E-3
3.531699023E0,-2.663082560E-4,2.130466048E-3,3.328853287E-3,3.961195511E-3
3.534235690E0,-1.331541222E-3,0.000000000E0,1.331541280E-4,1.338182367E-3
3.536765846E0,-2.663082560E-4,1.065233024E-3,1.198387123E-3,1.625353247E-3
3.539299440E0,-2.663082560E-4,3.195699072E-3,2.263620263E-3,3.925224750E-3
3.541833346E0,-2.663082560E-4,-1.065233024E-3,1.331541280E-4,1.106061257E-3
3.544366992E0,1.864157850E-3,0.000000000E0,-9.320789250E-4,2.084191837E-3
3.546898815E0,-2.663082560E-4,0.000000000E0,-1.997311832E-3,2.014987504E-3
3.549432461E0,-2.396774245E-3,-2.130466048E-3,1.331541280E-4,3.209539279E-3
3.551966888E0,-2.663082560E-4,-1.065233024E-3,1.331541280E-4,1.106061257E-3
3.554499961E0,-1.331541222E-3,0.000000000E0,1.331541280E-4,1.338182367E-3
3.557032825E0,-5.592473317E-3,1.065233024E-3,1.331541280E-4,5.694577176E-3
3.559565690E0,-1.331541222E-3,-1.065233024E-3,-9.320789250E-4,1.943320494E-3
3.562090794E0,1.864157850E-3,1.065233024E-3,1.331541280E-4,2.151170822E-3
3.564634231E0,1.864157850E-3,1.065233024E-3,2.263620263E-3,3.119901053E-3
3.567166054E0,7.989247679E-4,1.065233024E-3,1.198387123E-3,1.791405559E-3
3.569702513E0,-1.331541222E-3,1.065233024E-3,1.198387123E-3,2.084191718E-3
3.572233086E0,5.059856921E-3,-1.065233024E-3,1.198387123E-3,5.307824899E-3
3.574770742E0,-2.663082560E-4,3.195699072E-3,1.331541280E-4,3.209539323E-3
3.577300898E0,-2.396774245E-3,0.000000000E0,1.198387123E-3,2.679675070E-3
3.579833242E0,-2.396774245E-3,-1.065233024E-3,1.331541280E-4,2.626209855E-3
3.582367096E0,-2.663082560E-4,2.130466048E-3,1.331541280E-4,2.151170772E-3
3.584900742E0,-2.663082560E-4,-2.130466048E-3,3.328853287E-3,3.961195511E-3
3.587433346E0,-2.663082560E-4,0.000000000E0,-9.320789250E-4,9.693767119E-4
3.589967200E0,-2.663082560E-4,0.000000000E0,1.331541280E-4,2.977416816E-4
3.592500586E0,-1.331541222E-3,-2.130466048E-3,2.263620263E-3,3.381695477E-3
3.595033502E0,1.864157850E-3,-1.065233024E-3,1.198387123E-3,2.458848832E-3
3.597566888E0,-1.331541222E-3,-3.195699072E-3,-9.320789250E-4,3.585284606E-3
3.600100533E0,-2.396774245E-3,0.000000000E0,1.198387123E-3,2.679675070E-3
3.602623815E0,-1.331541222E-3,1.065233024E-3,2.263620263E-3,2.834025426E-3
3.605167044E0,1.864157850E-3,1.065233024E-3,1.331541280E-4,2.151170822E-3
3.607701158E0,1.864157850E-3,1.065233024E-3,2.263620263E-3,3.119901053E-3
3.610233763E0,-1.331541222E-3,1.065233024E-3,2.263620263E-3,2.834025426E-3
3.612776888E0,-2.396774245E-3,4.260932095E-3,1.331541280E-4,4.890582698E-3
3.615303711E0,7.989247679E-4,2.130466048E-3,2.263620263E-3,3.209539384E-3
3.617834179E0,7.989247679E-4,3.195699072E-3,2.263620263E-3,3.996842508E-3
3.620367044E0,7.989247679E-4,0.000000000E0,1.331541280E-4,8.099449404E-4
3.622900638E0,1.864157850E-3,0.000000000E0,1.331541280E-4,1.868907304E-3
3.625433502E0,3.994623665E-3,4.260932095E-3,-9.320789250E-4,5.914501811E-3
3.627968658E0,2.929390874E-3,1.065233024E-3,1.331541280E-4,3.119901009E-3
3.630501054E0,7.989247679E-4,-2.130466048E-3,3.328853287E-3,4.032174422E-3
3.633033919E0,2.929390874E-3,-2.130466048E-3,3.328853287E-3,4.919500043E-3
3.635567252E0,-1.331541222E-3,0.000000000E0,2.263620263E-3,2.626209953E-3
3.638101419E0,-3.462007269E-3,-1.065233024E-3,3.328853287E-3,4.919499968E-3
3.640633711E0,-1.331541222E-3,-3.195699072E-3,2.263620263E-3,4.136359665E-3
3.643168398E0,7.989247679E-4,3.195699072E-3,-1.997311832E-3,3.852275678E-3
3.645701575E0,1.864157850E-3,2.130466048E-3,-9.320789250E-4,2.980392792E-3
3.648235221E0,-1.331541222E-3,1.065233024E-3,2.263620263E-3,2.834025426E-3
3.650767721E0,-2.663082560E-4,1.065233024E-3,1.198387123E-3,1.625353247E-3
3.653301627E0,-2.663082560E-4,0.000000000E0,1.331541280E-4,2.977416816E-4
3.655837252E0,-2.396774245E-3,-1.065233024E-3,2.263620263E-3,3.464567054E-3
3.658367669E0,1.864157850E-3,-1.065233024E-3,3.328853287E-3,3.961195538E-3
3.660900533E0,7.989247679E-4,-1.065233024E-3,1.198387123E-3,1.791405559E-3
3.663435377E0,-2.396774245E-3,2.130466048E-3,-9.320789250E-4,3.339488507E-3
3.665969336E0,-1.331541222E-3,2.130466048E-3,1.198387123E-3,2.783526415E-3
3.668501888E0,7.989247679E-4,1.065233024E-3,3.328853287E-3,3.585284701E-3
3.671035586E0,-2.663082560E-4,1.065233024E-3,2.263620263E-3,2.515873243E-3
3.673568658E0,-1.331541222E-3,1.065233024E-3,1.331541280E-4,1.710395697E-3
3.676101575E0,2.929390874E-3,0.000000000E0,2.263620263E-3,3.702068015E-3
3.678634127E0,-1.331541222E-3,3.195699072E-3,1.198387123E-3,3.663553777E-3
3.681168346E0,-4.527240526E-3,4.260932095E-3,-9.320789250E-4,6.286510974E-3
3.683701888E0,-2.663082560E-4,1.065233024E-3,1.331541280E-4,1.106061257E-3
3.686234544E0,7.989247679E-4,0.000000000E0,1.331541280E-4,8.099449404E-4
3.688768971E0,1.864157850E-3,0.000000000E0,4.394086078E-3,4.773162154E-3
3.691303606E0,1.864157850E-3,0.000000000E0,3.328853287E-3,3.815278325E-3
3.693835690E0,1.864157850E-3,-1.065233024E-3,2.263620263E-3,3.119901053E-3
3.696371783E0,-3.462007269E-3,0.000000000E0,-9.320789250E-4,3.585284571E-3
3.698901679E0,-2.396774245E-3,0.000000000E0,1.331541280E-4,2.400470122E-3
3.701438398E0,-2.663082560E-4,2.130466048E-3,2.263620263E-3,3.119901018E-3
3.703969440E0,1.864157850E-3,-1.065233024E-3,1.331541280E-4,2.151170822E-3
3.706510169E0,7.989247679E-4,-3.195699072E-3,-3.062544856E-3,4.497772153E-3
3.709025429E0,-1.331541222E-3,1.065233024E-3,1.198387123E-3,2.084191718E-3
3.711590169E0,7.989247679E-4,1.065233024E-3,2.263620263E-3,2.626209983E-3
3.714106731E0,7.989247679E-4,-1.065233024E-3,1.331541280E-4,1.338182425E-3
3.716636419E0,-2.663082560E-4,3.195699072E-3,1.198387123E-3,3.423382003E-3
3.719191106E0,-2.663082560E-4,3.195699072E-3,-9.320789250E-4,3.339488548E-3
3.721705481E0,7.989247679E-4,0.000000000E0,1.331541280E-4,8.099449404E-4
3.724224908E0,7.989247679E-4,0.000000000E0,-9.320789250E-4,1.227620425E-3
3.726791471E0,-2.663082560E-4,0.000000000E0,1.331541280E-4,2.977416816E-4
3.729303502E0,-1.331541222E-3,2.130466048E-3,1.198387123E-3,2.783526415E-3
3.731825325E0,2.929390874E-3,1.065233024E-3,-3.062544856E-3,4.369809296E-3
3.734369804E0,1.864157850E-3,0.000000000E0,2.263620263E-3,2.932415589E-3
3.736896836E0,7.989247679E-4,1.065233024E-3,2.263620263E-3,2.626209983E-3
3.739436263E0,1.864157850E-3,4.260932095E-3,1.198387123E-3,4.802786536E-3
3.741958450E0,-2.396774245E-3,1.065233024E-3,3.328853287E-3,4.237984472E-3
3.744507461E0,-3.462007269E-3,1.065233024E-3,3.328853287E-3,4.919499968E-3
3.747026002E0,2.929390874E-3,1.065233024E-3,-3.062544856E-3,4.369809296E-3
3.749594127E0,-3.462007269E-3,-1.065233024E-3,-9.320789250E-4,3.740185403E-3
3.752106575E0,1.864157850E-3,1.065233024E-3,1.198387123E-3,2.458848832E-3
3.754625898E0,1.864157850E-3,2.130466048E-3,1.198387123E-3,3.074101782E-3
3.757195117E0,-2.663082560E-4,0.000000000E0,1.198387123E-3,1.227620374E-3
3.759706992E0,1.864157850E-3,0.000000000E0,1.198387123E-3,2.216126392E-3
3.762229440E0,-2.663082560E-4,0.000000000E0,1.198387123E-3,1.227620374E-3
3.764760950E0,-1.331541222E-3,-1.065233024E-3,4.394086078E-3,4.713355055E-3
3.767307773E0,-3.462007269E-3,1.065233024E-3,1.198387123E-3,3.815278158E-3
3.769829023E0,-3.462007269E-3,0.000000000E0,1.331541280E-4,3.464566979E-3
3.772373398E0,-2.396774245E-3,0.000000000E0,1.198387123E-3,2.679675070E-3
3.774892669E0,-1.331541222E-3,1.065233024E-3,1.331541280E-4,1.710395697E-3
3.777422773E0,1.864157850E-3,-1.065233024E-3,1.331541280E-4,2.151170822E-3
3.779971002E0,7.989247679E-4,0.000000000E0,3.328853287E-3,3.423382098E-3
3.782497200E0,-1.331541222E-3,-1.065233024E-3,1.198387123E-3,2.084191718E-3
3.785041211E0,-1.331541222E-3,1.065233024E-3,1.198387123E-3,2.084191718E-3
3.787574283E0,-1.331541222E-3,-1.065233024E-3,-9.320789250E-4,1.943320494E-3
3.790096836E0,1.864157850E-3,-1.065233024E-3,1.198387123E-3,2.458848832E-3
3.792641419E0,-2.663082560E-4,2.130466048E-3,1.198387123E-3,2.458848788E-3
3.795160221E0,-1.331541222E-3,1.065233024E-3,1.331541280E-4,1.710395697E-3
3.797727617E0,-1.331541222E-3,1.065233024E-3,1.331541280E-4,1.710395697E-3
3.800240481E0,-1.331541222E-3,0.000000000E0,1.198387123E-3,1.791405515E-3
3.802759544E0,-4.527240526E-3,2.130466048E-3,-9.320789250E-4,5.089554350E-3
3.805290377E0,-2.663082560E-4,-3.195699072E-3,1.198387123E-3,3.423382003E-3
3.807840377E0,-4.527240526E-3,-2.130466048E-3,-1.997311832E-3,5.387397045E-3
3.810371575E0,-2.396774245E-3,-1.065233024E-3,-1.997311832E-3,3.296741230E-3
3.812913867E0,-3.462007269E-3,-1.065233024E-3,1.198387123E-3,3.815278158E-3
3.815437773E0,1.864157850E-3,-1.065233024E-3,1.198387123E-3,2.458848832E-3
3.817973398E0,-2.663082560E-4,-1.065233024E-3,1.331541280E-4,1.106061257E-3
3.820507148E0,-2.663082560E-4,-1.065233024E-3,1.331541280E-4,1.106061257E-3
3.823037408E0,7.989247679E-4,1.065233024E-3,1.198387123E-3,1.791405559E-3
3.825571054E0,-2.663082560E-4,0.000000000E0,1.198387123E-3,1.227620374E-3
3.828104231E0,-3.462007269E-3,1.065233024E-3,1.198387123E-3,3.815278158E-3
3.830638606E0,-2.663082560E-4,0.000000000E0,1.331541280E-4,2.977416816E-4
3.833171211E0,-1.331541222E-3,2.130466048E-3,1.331541280E-4,2.515873134E-3
3.835704804E0,-3.462007269E-3,-1.065233024E-3,2.263620263E-3,4.271322093E-3
3.838237981E0,7.989247679E-4,0.000000000E0,1.198387123E-3,1.440282084E-3
3.840771106E0,-1.331541222E-3,0.000000000E0,1.331541280E-4,1.338182367E-3
3.843304700E0,-2.663082560E-4,-3.195699072E-3,-1.997311832E-3,3.777918368E-3
3.845837825E0,-2.663082560E-4,3.195699072E-3,-9.320789250E-4,3.339488548E-3
3.848372252E0,-3.462007269E-3,3.195699072E-3,3.328853287E-3,5.768817131E-3
3.850904856E0,-1.331541222E-3,-1.065233024E-3,-9.320789250E-4,1.943320494E-3
3.853437981E0,-1.331541222E-3,2.130466048E-3,1.331541280E-4,2.515873134E-3
3.855974961E0,7.989247679E-4,-2.130466048E-3,3.328853287E-3,4.032174422E-3
3.858507929E0,7.989247679E-4,1.065233024E-3,2.263620263E-3,2.626209983E-3
3.861041419E0,7.989247679E-4,2.130466048E-3,2.263620263E-3,3.209539384E-3
3.863575586E0,7.989247679E-4,1.065233024E-3,1.331541280E-4,1.338182425E-3
3.866109283E0,1.864157850E-3,3.195699072E-3,1.198387123E-3,3.888921282E-3
3.868645533E0,-2.663082560E-4,4.260932095E-3,2.263620263E-3,4.832229206E-3
3.871175794E0,-2.663082560E-4,1.065233024E-3,1.198387123E-3,1.625353247E-3
3.873704961E0,-1.331541222E-3,0.000000000E0,2.263620263E-3,2.626209953E-3
3.876238346E0,2.929390874E-3,0.000000000E0,2.263620263E-3,3.702068015E-3
3.878772252E0,1.864157850E-3,1.065233024E-3,3.328853287E-3,3.961195538E-3
3.881309231E0,-2.663082560E-4,0.000000000E0,2.263620263E-3,2.279231621E-3
3.883855273E0,-2.663082560E-4,0.000000000E0,1.198387123E-3,1.227620374E-3
3.886375586E0,1.864157850E-3,-3.195699072E-3,-9.320789250E-4,3.815278256E-3
3.888909648E0,-2.663082560E-4,0.000000000E0,-9.320789250E-4,9.693767119E-4
3.891437565E0,-1.331541222E-3,2.130466048E-3,-1.997311832E-3,3.209539244E-3
3.893971992E0,-1.331541222E-3,0.000000000E0,-1.997311832E-3,2.400470075E-3
3.896505117E0,-2.663082560E-4,0.000000000E0,1.198387123E-3,1.227620374E-3
3.899042461E0,-1.331541222E-3,-1.065233024E-3,-9.320789250E-4,1.943320494E-3
3.901572356E0,7.989247679E-4,0.000000000E0,1.331541280E-4,8.099449404E-4
3.904105742E0,1.864157850E-3,2.130466048E-3,1.331541280E-4,2.834025422E-3
3.906643502E0,-3.462007269E-3,2.130466048E-3,2.263620263E-3,4.652779450E-3
3.909171471E0,-1.331541222E-3,2.130466048E-3,1.198387123E-3,2.783526415E-3
3.911709961E0,-2.396774245E-3,-2.130466048E-3,2.263620263E-3,3.925224714E-3
3.914242356E0,-2.663082560E-4,-1.065233024E-3,2.263620263E-3,2.515873243E-3
3.916776523E0,7.989247679E-4,1.065233024E-3,2.263620263E-3,2.626209983E-3
3.919309127E0,-2.396774245E-3,0.000000000E0,1.198387123E-3,2.679675070E-3
3.921840117E0,-1.331541222E-3,4.260932095E-3,2.263620263E-3,5.005249349E-3
3.924372513E0,7.989247679E-4,1.065233024E-3,1.198387123E-3,1.791405559E-3
3.926906419E0,-2.663082560E-4,0.000000000E0,1.198387123E-3,1.227620374E-3
3.929439492E0,-1.331541222E-3,-1.065233024E-3,1.331541280E-4,1.710395697E-3
3.931972356E0,7.989247679E-4,4.260932095E-3,2.263620263E-3,4.890582767E-3
3.934506002E0,-1.331541222E-3,-1.065233024E-3,2.263620263E-3,2.834025426E-3
3.937038867E0,-2.396774245E-3,-3.195699072E-3,-9.320789250E-4,4.101925214E-3
3.939576471E0,1.864157850E-3,0.000000000E0,2.263620263E-3,2.932415589E-3
3.942105846E0,-1.331541222E-3,1.065233024E-3,-9.320789250E-4,1.943320494E-3
3.944639023E0,-2.396774245E-3,0.000000000E0,1.331541280E-4,2.400470122E-3
3.947173658E0,-2.663082560E-4,0.000000000E0,-9.320789250E-4,9.693767119E-4
3.949706002E0,-2.663082560E-4,1.065233024E-3,1.198387123E-3,1.625353247E-3
3.952239908E0,-1.331541222E-3,0.000000000E0,2.263620263E-3,2.626209953E-3
3.954772773E0,-1.331541222E-3,1.065233024E-3,1.198387123E-3,2.084191718E-3
3.957305846E0,-2.396774245E-3,0.000000000E0,1.331541280E-4,2.400470122E-3
3.959840013E0,-1.331541222E-3,0.000000000E0,1.198387123E-3,1.791405515E-3
3.962359648E0,-2.663082560E-4,-3.195699072E-3,3.328853287E-3,4.622193943E-3
3.964909856E0,7.989247679E-4,3.195699072E-3,2.263620263E-3,3.996842508E-3
3.967444075E0,1.864157850E-3,4.260932095E-3,1.331541280E-4,4.652779474E-3
3.969978450E0,-1.331541222E-3,-2.130466048E-3,2.263620263E-3,3.381695477E-3
3.972505586E0,7.989247679E-4,0.000000000E0,1.198387123E-3,1.440282084E-3
3.975038450E0,-2.663082560E-4,3.195699072E-3,1.331541280E-4,3.209539323E-3
3.977572617E0,-1.331541222E-3,-2.130466048E-3,1.331541280E-4,2.515873134E-3
3.980109544E0,-1.331541222E-3,-3.195699072E-3,1.331541280E-4,3.464567015E-3
3.982640273E0,-2.663082560E-4,-1.065233024E-3,1.331541280E-4,1.106061257E-3
3.985174336E0,1.864157850E-3,1.065233024E-3,1.331541280E-4,2.151170822E-3
3.987706940E0,7.989247679E-4,0.000000000E0,1.198387123E-3,1.440282084E-3
3.990239492E0,-2.663082560E-4,-1.065233024E-3,1.198387123E-3,1.625353247E-3
3.992773450E0,7.989247679E-4,-1.065233024E-3,6.524552125E-3,6.659037665E-3
3.995306783E0,-1.331541222E-3,-1.065233024E-3,1.198387123E-3,2.084191718E-3
3.997843346E0,1.864157850E-3,-1.065233024E-3,-9.320789250E-4,2.340636026E-3
4.000378763E0,-1.331541222E-3,-2.130466048E-3,1.198387123E-3,2.783526415E-3
4.002906940E0,-2.663082560E-4,0.000000000E0,1.331541280E-4,2.977416816E-4
4.005440846E0,1.864157850E-3,2.130466048E-3,1.198387123E-3,3.074101782E-3
4.007973658E0,-3.462007269E-3,0.000000000E0,1.198387123E-3,3.663553743E-3
4.010507825E0,-2.396774245E-3,-5.326164886E-3,-1.997311832E-3,6.172666663E-3
4.013051992E0,-1.331541222E-3,-1.065233024E-3,-1.997311832E-3,2.626209812E-3
4.015573554E0,-2.663082560E-4,2.130466048E-3,1.198387123E-3,2.458848788E-3
4.018107200E0,-1.331541222E-3,1.065233024E-3,-9.320789250E-4,1.943320494E-3
4.020644127E0,-4.527240526E-3,-1.065233024E-3,-9.320789250E-4,4.743353170E-3
4.023174231E0,-2.663082560E-4,0.000000000E0,-9.320789250E-4,9.693767119E-4
4.025708033E0,1.864157850E-3,3.195699072E-3,3.328853287E-3,4.976830442E-3
4.028241263E0,-2.396774245E-3,3.195699072E-3,3.328853287E-3,5.199834954E-3
4.030773554E0,-1.331541222E-3,-1.065233024E-3,1.198387123E-3,2.084191718E-3
4.033307981E0,-2.396774245E-3,2.130466048E-3,2.263620263E-3,3.925224714E-3
4.035841106E0,-1.331541222E-3,1.065233024E-3,1.198387123E-3,2.084191718E-3
4.038390794E0,-1.331541222E-3,1.065233024E-3,-1.997311832E-3,2.626209812E-3
4.040908138E0,-2.663082560E-4,1.065233024E-3,1.198387123E-3,1.625353247E-3
4.043441731E0,-2.396774245E-3,1.065233024E-3,2.263620263E-3,3.464567054E-3
4.045974856E0,1.864157850E-3,0.000000000E0,1.331541280E-4,1.868907304E-3
4.048508502E0,1.864157850E-3,1.065233024E-3,-9.320789250E-4,2.340636026E-3
4.051042408E0,7.989247679E-4,0.000000000E0,1.198387123E-3,1.440282084E-3
4.053575273E0,7.989247679E-4,-1.065233024E-3,1.198387123E-3,1.791405559E-3
4.056109388E0,-2.396774245E-3,0.000000000E0,1.331541280E-4,2.400470122E-3
4.058641471E0,-2.396774245E-3,2.130466048E-3,1.198387123E-3,3.423381962E-3
4.061178398E0,-2.396774245E-3,0.000000000E0,1.198387123E-3,2.679675070E-3
4.063707721E0,-1.331541222E-3,2.130466048E-3,1.198387123E-3,2.783526415E-3
4.066241836E0,-2.396774245E-3,-1.065233024E-3,-9.320789250E-4,2.783526415E-3
4.068774752E0,-2.663082560E-4,2.130466048E-3,1.331541280E-4,2.151170772E-3
4.071307877E0,2.929390874E-3,-3.195699072E-3,1.331541280E-4,4.337228778E-3
4.073845117E0,-2.663082560E-4,-4.260932095E-3,1.331541280E-4,4.271322094E-3
4.076377148E0,-2.663082560E-4,0.000000000E0,-1.997311832E-3,2.014987504E-3
4.078913138E0,-2.663082560E-4,1.065233024E-3,1.198387123E-3,1.625353247E-3
4.081442096E0,-1.331541222E-3,-1.065233024E-3,1.331541280E-4,1.710395697E-3
4.083975481E0,-2.396774245E-3,0.000000000E0,-9.320789250E-4,2.571633315E-3
4.086508867E0,-2.396774245E-3,0.000000000E0,1.331541280E-4,2.400470122E-3
4.089043086E0,-1.331541222E-3,-1.065233024E-3,-9.320789250E-4,1.943320494E-3
4.091575117E0,-1.331541222E-3,0.000000000E0,1.331541280E-4,1.338182367E-3
4.094109231E0,7.989247679E-4,0.000000000E0,1.331541280E-4,8.099449404E-4
