"Time (s)","Gyroscope x (rad/s)","Gyroscope y (rad/s)","Gyroscope z (rad/s)","Absolute (rad/s)"
5.049370700E-2,-7.283531129E-2,5.712312087E-2,5.725627299E-3,9.274058614E-2
5.311542500E-2,-7.816147059E-2,4.966649041E-2,4.660394508E-3,9.272375656E-2
5.564188400E-2,-8.135717362E-2,3.368799388E-2,3.994623839E-4,8.805697134E-2
5.816834200E-2,-8.348763734E-2,2.197043039E-2,-3.861469682E-3,8.641641249E-2
6.069480000E-2,-8.881380409E-2,1.344856713E-2,-8.122402243E-3,9.019273348E-2
6.322131100E-2,-9.627043456E-2,-3.994623839E-4,-1.238333434E-2,9.706442762E-2
6.574776900E-2,-9.946613014E-2,-1.105179265E-2,-1.877473295E-2,1.018240824E-1
6.827422800E-2,-1.079879999E-1,-1.744319126E-2,-2.197043039E-2,1.115722764E-1
7.080068600E-2,-1.133141592E-1,-1.957365684E-2,-2.516612969E-2,1.177138938E-1
7.332714400E-2,-1.250317246E-1,-2.596505545E-2,-2.623136342E-2,1.303656423E-1
7.585365500E-2,-1.367492825E-1,-2.383458801E-2,-2.836182900E-2,1.416786758E-1
7.838011300E-2,-1.442059278E-1,-2.063889056E-2,-3.049229458E-2,1.488324342E-1
8.090657100E-2,-1.516625583E-1,-1.637795754E-2,-2.942706272E-2,1.553567543E-1
8.351620700E-2,-1.601844132E-1,-1.211702544E-2,-2.836182900E-2,1.631265211E-1
8.604266500E-2,-1.676410437E-1,-2.529928461E-3,-2.623136342E-2,1.696997480E-1
8.856912300E-2,-1.708367467E-1,1.131810062E-2,-2.623136342E-2,1.732090582E-1
9.109558200E-2,-1.697715074E-1,2.197043039E-2,-2.197043039E-2,1.725913217E-1
9.362204000E-2,-1.772281379E-1,3.262276202E-2,-1.877473295E-2,1.811809815E-1
9.614849800E-2,-1.750976741E-1,4.860125855E-2,-1.025286783E-2,1.820065909E-1
9.867500900E-2,-1.782933772E-1,6.564498693E-2,-5.991935730E-3,1.900886528E-1
1.012014670E-1,-1.761629134E-1,8.055824786E-2,-1.731003635E-3,1.937162867E-1
1.037279250E-1,-1.804238409E-1,9.866721183E-2,4.660394508E-3,2.056932190E-1
1.062544360E-1,-1.761629134E-1,1.103847697E-1,1.105179265E-2,2.081833605E-1
1.087808940E-1,-1.665758193E-1,1.295589656E-1,1.531272475E-2,2.115833374E-1
1.113073530E-1,-1.580539495E-1,1.391460598E-1,2.596505545E-2,2.121717724E-1
1.139217280E-1,-1.527277827E-1,1.455374658E-1,3.768261895E-2,2.143056447E-1
1.164481860E-1,-1.452711523E-1,1.540593207E-1,4.726971686E-2,2.169617665E-1
1.189746440E-1,-1.378145218E-1,1.593854874E-1,5.153064802E-2,2.169146922E-1
1.215011030E-1,-1.303578913E-1,1.604507267E-1,5.685681105E-2,2.144068854E-1
1.240276130E-1,-1.186403260E-1,1.572550237E-1,6.218297780E-2,2.065705501E-1
1.265540710E-1,-1.037270650E-1,1.529940963E-1,6.857437640E-2,1.971520799E-1
1.290805300E-1,-9.413997084E-2,1.519288570E-1,7.283531129E-2,1.930017986E-1
1.316069880E-1,-8.348763734E-2,1.476679295E-1,7.390054315E-2,1.850332221E-1
1.341334460E-1,-7.283531129E-2,1.402112991E-1,8.029194176E-2,1.772314500E-1
1.366599570E-1,-6.111774594E-2,1.327546686E-1,8.455286920E-2,1.688442140E-1
1.391864150E-1,-5.046541616E-2,1.199718714E-1,8.668334037E-2,1.563777786E-1
1.417128730E-1,-4.513924941E-2,1.103847697E-1,9.094426781E-2,1.499773619E-1
1.443221960E-1,-3.235645220E-2,9.973244369E-2,9.520520270E-2,1.416246128E-1
1.468486550E-1,-2.703028731E-2,8.694964647E-2,9.627043456E-2,1.325099016E-1
1.493751130E-1,-2.383458801E-2,7.416684926E-2,9.413997084E-2,1.221930572E-1
1.519015710E-1,-1.957365684E-2,6.138405204E-2,9.733566642E-2,1.167277253E-1
1.544280820E-1,-1.850842312E-2,4.966649041E-2,9.733566642E-2,1.108311958E-1
1.569545400E-1,-2.276935615E-2,4.114462435E-2,8.987903595E-2,1.014374921E-1
1.594809980E-1,-2.170412242E-2,3.049229458E-2,8.561810106E-2,9.344146932E-2
1.620074570E-1,-2.809552103E-2,2.729659714E-2,8.135717362E-2,9.029646846E-2
1.645339150E-1,-3.342168778E-2,2.942706272E-2,7.070484012E-2,8.355917455E-2
1.670604250E-1,-3.874785081E-2,2.942706272E-2,6.218297780E-2,7.895613143E-2
1.695868840E-1,-4.513924941E-2,3.581846133E-2,5.046541616E-2,7.659812164E-2
1.721133420E-1,-5.259587988E-2,4.327509180E-2,4.620448127E-2,8.230379238E-2
1.747234460E-1,-6.111774594E-2,5.712312087E-2,3.981308267E-2,9.264724150E-2
1.772499050E-1,-6.644391268E-2,6.564498693E-2,2.916075476E-2,9.784890117E-2
1.797763630E-1,-8.455286920E-2,7.416684926E-2,2.489982173E-2,1.151950969E-1
1.823028210E-1,-1.005313694E-1,8.694964647E-2,2.383458801E-2,1.350366056E-1
1.848293320E-1,-1.111836955E-1,1.007976755E-1,2.489982173E-2,1.521249048E-1
1.873557900E-1,-1.271621883E-1,1.157109365E-1,2.063889056E-2,1.731623711E-1
1.898822480E-1,-1.452711523E-1,1.231675670E-1,1.850842312E-2,1.913544328E-1
1.924087070E-1,-1.601844132E-1,1.338198930E-1,2.170412242E-2,2.098520406E-1
1.949351650E-1,-1.793586165E-1,1.412765235E-1,2.383458801E-2,2.295575243E-1
1.974616750E-1,-1.964023411E-1,1.529940963E-1,2.596505545E-2,2.503103218E-1
1.999881340E-1,-2.113156021E-1,1.625811905E-1,2.916075476E-2,2.682112540E-1
2.025145920E-1,-2.326202542E-1,1.689725816E-1,3.448691964E-2,2.895742800E-1
2.051205820E-1,-2.496639937E-1,1.711030602E-1,4.300878197E-2,3.057092120E-1
2.076470400E-1,-2.656424940E-1,1.732335240E-1,4.620448127E-2,3.204850114E-1
2.101734980E-1,-2.730991244E-1,1.711030602E-1,5.046541616E-2,3.261995512E-1
2.126999570E-1,-2.858819067E-1,1.689725816E-1,5.685681105E-2,3.369167477E-1
2.152264670E-1,-2.933385372E-1,1.593854874E-1,6.324820966E-2,3.397816461E-1
2.177529250E-1,-2.965342402E-1,1.519288570E-1,7.496577501E-2,3.415183753E-1
2.202793840E-1,-2.954690158E-1,1.423417628E-1,8.348763734E-2,3.384276914E-1
2.228058420E-1,-2.922733128E-1,1.316894293E-1,9.413997084E-2,3.341079605E-1
2.253323000E-1,-2.858819067E-1,1.178414002E-1,1.026618332E-1,3.258136157E-1
2.278588110E-1,-2.837514579E-1,1.039933711E-1,1.133141592E-1,3.227531716E-1
2.303852690E-1,-2.752295732E-1,9.227581322E-2,1.239664927E-1,3.156482774E-1
2.329117280E-1,-2.677729428E-1,8.055824786E-2,1.303578913E-1,3.085209231E-1
2.355245400E-1,-2.581858635E-1,6.457975507E-2,1.367492825E-1,2.992170636E-1
2.380509980E-1,-2.464682907E-1,5.179695413E-2,1.442059278E-1,2.902152518E-1
2.405774570E-1,-2.411421239E-1,4.753602296E-2,1.527277827E-1,2.893699588E-1
2.431039150E-1,-2.315550297E-1,3.794892505E-2,1.580539495E-1,2.829114767E-1
2.456304250E-1,-2.177069932E-1,2.942706272E-2,1.591191888E-1,2.712585541E-1
2.481568840E-1,-2.134460658E-1,2.303566411E-2,1.665758193E-1,2.717303229E-1
2.506833420E-1,-2.091851383E-1,1.877473295E-2,1.697715074E-1,2.700616178E-1
2.532098000E-1,-2.049241960E-1,1.451379992E-2,1.740324497E-1,2.692431430E-1
2.557362590E-1,-2.027937323E-1,9.187635034E-3,1.750976741E-1,2.680837667E-1
2.582627170E-1,-2.038589716E-1,5.991935730E-3,1.804238409E-1,2.722997355E-1
2.607892280E-1,-2.049241960E-1,6.657706108E-4,1.857500076E-1,2.765816962E-1
2.633156860E-1,-2.113156021E-1,-1.464695437E-3,1.889457107E-1,2.834729451E-1
2.659096440E-1,-2.113156021E-1,-7.856093347E-3,1.953371018E-1,2.878759893E-1
2.684361030E-1,-2.166417688E-1,-8.921326138E-3,1.953371018E-1,2.918387044E-1
2.709625610E-1,-2.283593267E-1,-8.921326138E-3,1.974675655E-1,3.020281636E-1
2.734890190E-1,-2.326202542E-1,-9.986559860E-3,2.017285079E-1,3.080686692E-1
2.760155300E-1,-2.400768995E-1,-6.790860556E-3,2.059894353E-1,3.164090405E-1
2.785419880E-1,-2.422073632E-1,6.657706108E-4,2.113156021E-1,3.214329382E-1
2.810684460E-1,-2.496639937E-1,5.991935730E-3,2.134460658E-1,3.285228090E-1
2.835949050E-1,-2.592510879E-1,1.344856713E-2,2.155765295E-1,3.374392251E-1
2.861213630E-1,-2.624467909E-1,1.877473295E-2,2.166417688E-1,3.408290842E-1
2.886478730E-1,-2.635120153E-1,2.410089783E-2,2.198374718E-1,3.440173681E-1
2.911743320E-1,-2.688381970E-1,2.836182900E-2,2.230331600E-1,3.504599263E-1
2.937007900E-1,-2.773600519E-1,3.475322574E-2,2.240983993E-1,3.582687227E-1
2.963213630E-1,-2.762948275E-1,4.220985994E-2,2.283593267E-1,3.609272587E-1
2.988478210E-1,-2.720338702E-1,5.073172227E-2,2.315550297E-1,3.608238712E-1
3.013742800E-1,-2.688381970E-1,5.925358832E-2,2.347507328E-1,3.617911973E-1
3.039007380E-1,-2.635120153E-1,6.564498693E-2,2.358159572E-1,3.596623586E-1
3.064272480E-1,-2.571206093E-1,7.310161740E-2,2.358159572E-1,3.564604043E-1
3.089537070E-1,-2.571206093E-1,8.162347972E-2,2.411421239E-1,3.618327294E-1
3.114801650E-1,-2.443378270E-1,8.588441461E-2,2.464682907E-1,3.575244393E-1
3.140066230E-1,-2.358159572E-1,9.440627694E-2,2.507292330E-1,3.569129573E-1
3.165330820E-1,-2.272941023E-1,9.760197252E-2,2.549901605E-1,3.552586887E-1
3.190595920E-1,-2.145113051E-1,1.007976755E-1,2.613815665E-1,3.528393327E-1
3.215860500E-1,-1.995980442E-1,1.029281393E-1,2.656424940E-1,3.478498465E-1
3.241125090E-1,-1.878804713E-1,1.018629074E-1,2.709686458E-1,3.451074187E-1
3.267224050E-1,-1.740324497E-1,1.050586104E-1,2.816209793E-1,3.473254686E-1
3.292488630E-1,-1.569887102E-1,9.973244369E-2,2.890776098E-1,3.437410070E-1
3.317753210E-1,-1.410102248E-1,9.440627694E-2,2.965342402E-1,3.416562370E-1
3.343017800E-1,-1.218360290E-1,9.227581322E-2,3.029256463E-1,3.392974961E-1
3.368282900E-1,-1.058575287E-1,8.588441461E-2,3.093170524E-1,3.380221708E-1
3.393547480E-1,-9.627043456E-2,7.310161740E-2,3.157084286E-1,3.380586561E-1
3.418812070E-1,-7.922670245E-2,7.097115368E-2,3.231650591E-1,3.402196797E-1
3.444076650E-1,-6.644391268E-2,6.138405204E-2,3.274259865E-1,3.396918781E-1
3.469341230E-1,-5.579157919E-2,5.499265343E-2,3.338173926E-1,3.428861966E-1
3.494606340E-1,-4.194355011E-2,4.860125855E-2,3.380783200E-1,3.441195929E-1
3.519870920E-1,-3.661738336E-2,4.220985994E-2,3.444697261E-1,3.489726311E-1
3.545135500E-1,-2.916075476E-2,3.794892505E-2,3.476654291E-1,3.509440427E-1
3.571139670E-1,-2.596505545E-2,3.262276202E-2,3.540568352E-1,3.565033958E-1
3.596404250E-1,-2.063889056E-2,2.942706272E-2,3.625786901E-1,3.643559006E-1
3.621668840E-1,-1.744319126E-2,3.155753016E-2,3.679048419E-1,3.696675741E-1
3.646933420E-1,-1.318225823E-2,3.368799388E-2,3.700353205E-1,3.717993966E-1
3.672198530E-1,-1.464695437E-3,3.688369319E-2,3.689700961E-1,3.708119253E-1
3.697463110E-1,1.731003635E-3,4.114462435E-2,3.732310236E-1,3.754960365E-1
3.722727690E-1,8.122402243E-3,4.647079110E-2,3.721657991E-1,3.751438256E-1
3.747992280E-1,1.664426550E-2,5.392742157E-2,3.721657991E-1,3.764207492E-1
3.773256860E-1,2.410089783E-2,6.031882018E-2,3.732310236E-1,3.788411412E-1
3.798521960E-1,3.049229458E-2,6.777545065E-2,3.711005449E-1,3.784691615E-1
3.823786550E-1,3.581846133E-2,7.203638554E-2,3.689700961E-1,3.776388948E-1
3.849051130E-1,4.220985994E-2,8.375394344E-2,3.679048419E-1,3.796713948E-1
3.875221440E-1,4.966649041E-2,8.908011019E-2,3.668396175E-1,3.807536359E-1
3.900486030E-1,5.286218971E-2,9.973244369E-2,3.636439145E-1,3.807595934E-1
3.925750610E-1,5.499265343E-2,1.135804728E-1,3.647091687E-1,3.859242069E-1
3.951015190E-1,5.499265343E-2,1.274285018E-1,3.636439145E-1,3.892288678E-1
3.976280300E-1,4.966649041E-2,1.412765235E-1,3.647091687E-1,3.942570152E-1
4.001544880E-1,4.860125855E-2,1.497983932E-1,3.636439145E-1,3.962808820E-1
4.026809460E-1,3.688369319E-2,1.529940963E-1,3.604482114E-1,3.933071490E-1
4.052074050E-1,3.581846133E-2,1.604507267E-1,3.636439145E-1,3.990793084E-1
4.077338630E-1,2.942706272E-2,1.657768935E-1,3.636439145E-1,4.007303669E-1
4.102603210E-1,2.729659714E-2,1.657768935E-1,3.636439145E-1,4.005795541E-1
4.127868320E-1,2.623136342E-2,1.700378209E-1,3.636439145E-1,4.022907425E-1
4.153132900E-1,2.516612969E-2,1.721682847E-1,3.625786901E-1,4.021673269E-1
4.179226650E-1,2.836182900E-2,1.679073572E-1,3.647091687E-1,4.025047225E-1
4.204491230E-1,3.368799388E-2,1.657768935E-1,3.679048419E-1,4.049331205E-1
4.229755820E-1,3.901416063E-2,1.561897993E-1,3.668396175E-1,4.006103632E-1
4.255020400E-1,4.434032366E-2,1.561897993E-1,3.657743931E-1,4.001902352E-1
4.280285500E-1,5.286218971E-2,1.551245600E-1,3.679048419E-1,4.027555250E-1
4.305550090E-1,6.351451576E-2,1.497983932E-1,3.668396175E-1,4.013040709E-1
4.330814670E-1,7.097115368E-2,1.497983932E-1,3.679048419E-1,4.035225346E-1
4.356079250E-1,7.842778414E-2,1.508636326E-1,3.689700961E-1,4.062630734E-1
4.381343840E-1,8.801487833E-2,1.508636326E-1,3.668396175E-1,4.062976242E-1
4.406608420E-1,9.973244369E-2,1.487331539E-1,3.689700961E-1,4.101305197E-1
4.431873530E-1,1.061238423E-1,1.476679295E-1,3.711005449E-1,4.132598478E-1
4.457138110E-1,1.146457046E-1,1.476679295E-1,3.700353205E-1,4.145788145E-1
4.483234460E-1,1.199718714E-1,1.519288570E-1,3.764267266E-1,4.232879729E-1
4.508499050E-1,1.263632625E-1,1.529940963E-1,3.774919510E-1,4.264681004E-1
4.533763630E-1,1.316894293E-1,1.540593207E-1,3.753614724E-1,4.265824832E-1
4.559028210E-1,1.338198930E-1,1.561897993E-1,3.742962480E-1,4.270839477E-1
4.584293320E-1,1.295589656E-1,1.529940963E-1,3.753614724E-1,4.255454782E-1
4.609557900E-1,1.284937263E-1,1.508636326E-1,3.742962480E-1,4.235187771E-1
4.634822480E-1,1.274285018E-1,1.487331539E-1,3.721657991E-1,4.205555329E-1
4.660087070E-1,1.263632625E-1,1.466026902E-1,3.689700961E-1,4.166520787E-1
4.685351650E-1,1.231675670E-1,1.423417628E-1,3.668396175E-1,4.123138755E-1
4.710616750E-1,1.199718714E-1,1.370155960E-1,3.668396175E-1,4.095580892E-1
4.735881340E-1,1.167761683E-1,1.295589656E-1,3.647091687E-1,4.042709200E-1
4.761145920E-1,1.114500016E-1,1.252980381E-1,3.593829870E-1,3.965814325E-1
4.787227690E-1,1.093195379E-1,1.167761683E-1,3.572525382E-1,3.914291902E-1
4.812492280E-1,1.103847697E-1,1.093195379E-1,3.572525382E-1,3.895701924E-1
4.837756860E-1,1.135804728E-1,1.071890742E-1,3.540568352E-1,3.869706241E-1
4.863021440E-1,1.061238423E-1,1.029281393E-1,3.519263566E-1,3.817180009E-1
4.888286550E-1,1.039933711E-1,1.039933711E-1,3.529915810E-1,3.824033194E-1
4.913551130E-1,1.071890742E-1,1.093195379E-1,3.540568352E-1,3.857414957E-1
4.938815710E-1,1.018629074E-1,1.125152409E-1,3.529915810E-1,3.842379309E-1
4.964080300E-1,1.029281393E-1,1.210371032E-1,3.497959077E-1,3.841892233E-1
4.989344880E-1,9.973244369E-2,1.316894293E-1,3.519263566E-1,3.887683456E-1
5.014609980E-1,1.029281393E-1,1.466026902E-1,3.529915810E-1,3.958403805E-1
5.039874570E-1,1.039933711E-1,1.615159512E-1,3.572525382E-1,4.056247031E-1
5.065139150E-1,1.050586104E-1,1.742987484E-1,3.583177626E-1,4.120788569E-1
5.091152170E-1,1.071890742E-1,1.934729517E-1,3.593829870E-1,4.219921942E-1
5.116416750E-1,1.146457046E-1,2.190385461E-1,3.636439145E-1,4.397253902E-1
5.141681340E-1,1.274285018E-1,2.414084375E-1,3.647091687E-1,4.555533278E-1
5.166945920E-1,1.434070021E-1,2.595174015E-1,3.636439145E-1,4.692033103E-1
5.192211030E-1,1.625811905E-1,2.776263654E-1,3.636439145E-1,4.855367533E-1
5.217475610E-1,1.817553788E-1,2.957353294E-1,3.636439145E-1,5.027238798E-1
5.242740190E-1,2.073209733E-1,3.063876629E-1,3.583177626E-1,5.150213636E-1
5.268004780E-1,2.232994735E-1,3.149095178E-1,3.593829870E-1,5.274341576E-1
5.293269360E-1,2.467346042E-1,3.181052208E-1,3.551220596E-1,5.368245278E-1
5.318534460E-1,2.691044807E-1,3.202356696E-1,3.487306535E-1,5.445926683E-1
5.343799050E-1,2.925396264E-1,3.159747422E-1,3.434045017E-1,5.507686651E-1
5.369063630E-1,3.117138147E-1,2.978657782E-1,3.412740231E-1,5.498704238E-1
5.395243320E-1,3.330184817E-1,2.797568142E-1,3.391435742E-1,5.515283748E-1
5.420507900E-1,3.489969671E-1,2.531259954E-1,3.348826170E-1,5.459102671E-1
5.445772480E-1,3.596493006E-1,2.201037705E-1,3.338173926E-1,5.377986062E-1
5.471037070E-1,3.713668585E-1,1.881467849E-1,3.295564651E-1,5.309614110E-1
5.496302170E-1,3.809539676E-1,1.497983932E-1,3.316869438E-1,5.268602402E-1
5.521566750E-1,3.894758224E-1,1.125152409E-1,3.316869438E-1,5.238008442E-1
5.546831340E-1,3.958672285E-1,7.203638554E-2,3.306216896E-1,5.207790367E-1
5.572095920E-1,3.916063011E-1,3.262276202E-2,3.284912407E-1,5.121779328E-1
5.597360500E-1,3.862801194E-1,-1.531272475E-2,3.242303133E-1,5.045513911E-1
5.622625610E-1,3.798887134E-1,-6.537867337E-2,3.189041317E-1,5.002895668E-1
5.647890190E-1,3.681711555E-1,-1.143793985E-1,3.167736828E-1,4.989771665E-1
5.673154780E-1,3.521926701E-1,-1.676410437E-1,3.103822768E-1,4.984780378E-1
5.699248000E-1,3.287575543E-1,-2.145113051E-1,2.954690158E-1,4.913232834E-1
5.724512590E-1,2.978657782E-1,-2.613815665E-1,2.880123854E-1,4.898933346E-1
5.749777170E-1,2.616478503E-1,-3.082517982E-1,2.762948275E-1,4.897117523E-1
5.775041750E-1,2.201037705E-1,-3.455349505E-1,2.603163123E-1,4.853912383E-1
5.800306860E-1,1.742987484E-1,-3.817528784E-1,2.454030514E-1,4.861460393E-1
5.825571440E-1,1.242327988E-1,-4.126446545E-1,2.304897904E-1,4.887074203E-1
5.850836030E-1,6.990591437E-2,-4.392754734E-1,2.166417688E-1,4.947559341E-1
5.876100610E-1,7.057168987E-3,-4.595148861E-1,1.964023411E-1,4.997775643E-1
5.901365190E-1,-6.218297780E-2,-4.797543287E-1,1.804238409E-1,5.163174421E-1
5.926630300E-1,-1.239664927E-1,-4.925371110E-1,1.655105799E-1,5.341855943E-1
5.951894880E-1,-1.857500076E-1,-4.967980385E-1,1.474016160E-1,5.504894120E-1
5.977159460E-1,-2.443378270E-1,-4.957328141E-1,1.292926520E-1,5.675989663E-1
6.003277170E-1,-2.933385372E-1,-4.808195531E-1,1.090532318E-1,5.736963896E-1
6.028541750E-1,-3.444697261E-1,-4.605801404E-1,9.200949967E-2,5.824596174E-1
6.053806340E-1,-3.881442845E-1,-4.392754734E-1,7.709623873E-2,5.912383251E-1
6.079070920E-1,-4.179708064E-1,-4.094489515E-1,6.537867337E-2,5.887464733E-1
6.104336030E-1,-4.435364008E-1,-3.828181326E-1,5.366111174E-2,5.883483462E-1
6.129600610E-1,-4.584496617E-1,-3.497959077E-1,4.407401755E-2,5.783388180E-1
6.154865190E-1,-4.659062922E-1,-3.093170524E-1,4.194355011E-2,5.608074299E-1
6.180129780E-1,-4.584496617E-1,-2.784252763E-1,4.194355011E-2,5.380111413E-1
6.205394360E-1,-4.477973282E-1,-2.443378270E-1,3.661738336E-2,5.114335281E-1
6.230658940E-1,-4.350145459E-1,-2.134460658E-1,4.300878197E-2,4.864633938E-1
6.255924050E-1,-4.126446545E-1,-1.814890802E-1,4.833494872E-2,4.533764048E-1
6.281188630E-1,-3.860138059E-1,-1.516625583E-1,5.259587988E-2,4.180604221E-1
6.307104780E-1,-3.615134656E-1,-1.239664927E-1,6.005251035E-2,3.868668778E-1
6.332369360E-1,-3.423392773E-1,-1.069227681E-1,6.857437640E-2,3.651453193E-1
6.357633940E-1,-3.231650591E-1,-8.987903595E-2,8.029194176E-2,3.449067880E-1
6.382898530E-1,-3.071865737E-1,-6.963960826E-2,8.987903595E-2,3.275538234E-1
6.408163630E-1,-2.922733128E-1,-5.046541616E-2,9.946613014E-2,3.128321573E-1
6.433428210E-1,-2.762948275E-1,-3.342168778E-2,1.122489274E-1,3.000927566E-1
6.458692800E-1,-2.720338702E-1,-1.531272475E-2,1.250317246E-1,2.997829852E-1
6.483957380E-1,-2.560553849E-1,8.122402243E-3,1.378145218E-1,2.909006290E-1
6.509221960E-1,-2.390116602E-1,2.729659714E-2,1.569887102E-1,2.872579556E-1
6.534487070E-1,-2.251636237E-1,5.179695413E-2,1.740324497E-1,2.892557267E-1
6.559751650E-1,-2.134460658E-1,7.736254483E-2,1.900109351E-1,2.960546264E-1
6.585016230E-1,-1.910761744E-1,9.653674066E-2,2.027937323E-1,2.948808990E-1
6.611284980E-1,-1.655105799E-1,1.167761683E-1,2.209026963E-1,2.997139082E-1
6.636549570E-1,-1.410102248E-1,1.423417628E-1,2.358159572E-1,3.094417984E-1
6.661814150E-1,-1.037270650E-1,1.732335240E-1,2.507292330E-1,3.219228264E-1
6.687078730E-1,-6.537867337E-2,2.030600458E-1,2.667077184E-1,3.415271002E-1
6.712343840E-1,-2.276935615E-2,2.328865677E-1,2.848166823E-1,3.686124517E-1
6.737608420E-1,2.410089783E-2,2.669740319E-1,2.965342402E-1,3.997355909E-1
6.762873000E-1,8.055824786E-2,3.106485903E-1,3.071865737E-1,4.442474187E-1
6.788137590E-1,1.327546686E-1,3.489969671E-1,3.274259865E-1,4.966190308E-1
6.813402170E-1,1.881467849E-1,3.905410469E-1,3.434045017E-1,5.530354181E-1
6.838666750E-1,2.424736619E-1,4.310199022E-1,3.583177626E-1,6.107071736E-1
6.863931860E-1,3.021267056E-1,4.672378302E-1,3.753614724E-1,6.711840069E-1
6.889196440E-1,3.553883731E-1,4.981296062E-1,3.945356905E-1,7.280744546E-1
6.915467800E-1,4.065195620E-1,5.215647221E-1,4.094489515E-1,7.777765473E-1
6.940732380E-1,4.523245692E-1,5.418041348E-1,4.243622124E-1,8.235487380E-1
6.965996960E-1,5.002600551E-1,5.556522012E-1,4.414059222E-1,8.682445966E-1
6.991261550E-1,5.428693891E-1,5.652392507E-1,4.573844373E-1,9.074156201E-1
7.016526650E-1,5.833482146E-1,5.695002079E-1,4.765586257E-1,9.443165518E-1
7.041791230E-1,6.302185059E-1,5.695002079E-1,4.904066622E-1,9.808183044E-1
7.067055820E-1,6.664364338E-1,5.577826500E-1,4.967980385E-1,1.001033114E0
7.092320400E-1,7.037195563E-1,5.418041348E-1,5.074504018E-1,1.022877727E0
7.117584980E-1,7.378070354E-1,5.194342732E-1,5.170374513E-1,1.039951399E0
7.142850090E-1,7.761554122E-1,4.917382002E-1,5.244941115E-1,1.057978145E0
7.168114670E-1,8.091776371E-1,4.576507509E-1,5.298202634E-1,1.070010360E0
7.193379250E-1,8.421998620E-1,4.161066413E-1,5.383421183E-1,1.082708447E0
7.219277690E-1,8.752220869E-1,3.777582645E-1,5.426030755E-1,1.096874243E0
7.244542280E-1,9.018529058E-1,3.372794092E-1,5.426030755E-1,1.105221318E0
7.269806860E-1,9.242228270E-1,2.936048508E-1,5.404726267E-1,1.110181203E0
7.295071440E-1,9.338098764E-1,2.531259954E-1,5.362116694E-1,1.106163012E0
7.320336550E-1,9.391360879E-1,2.169080675E-1,5.287550688E-1,1.099366920E0
7.345601130E-1,9.370055795E-1,1.785596907E-1,5.266245604E-1,1.089585447E0
7.370865710E-1,9.295489788E-1,1.306242049E-1,5.234288573E-1,1.074756603E0
7.396130300E-1,9.167661667E-1,8.375394344E-2,5.223636627E-1,1.058460544E0
7.421394880E-1,8.986572027E-1,4.434032366E-2,5.234288573E-1,1.040926799E0
7.446659980E-1,8.709611297E-1,6.657706108E-4,5.212984085E-1,1.015049636E0
7.471924570E-1,8.400694132E-1,-3.768261895E-2,5.159722567E-1,9.865920983E-1
7.497189150E-1,8.017209768E-1,-7.496577501E-2,5.053198934E-1,9.506443008E-1
7.523288630E-1,7.591117024E-1,-1.154446304E-1,4.978632927E-1,9.151207012E-1
7.548553210E-1,7.186328173E-1,-1.537930220E-1,4.893414080E-1,8.829158699E-1
7.573817800E-1,6.706973314E-1,-1.910761744E-1,4.765586257E-1,8.446615527E-1
7.599082380E-1,6.227618456E-1,-2.326202542E-1,4.637758136E-1,8.105754155E-1
7.624347480E-1,5.758916140E-1,-2.667077184E-1,4.499278069E-1,7.779583469E-1
7.649612070E-1,5.279561281E-1,-2.965342402E-1,4.307536185E-1,7.431143308E-1
7.674876650E-1,4.810858667E-1,-3.220998347E-1,4.126446545E-1,7.109623939E-1
7.700141230E-1,4.406070113E-1,-3.402087986E-1,3.945356905E-1,6.823012357E-1
7.725405820E-1,3.958672285E-1,-3.551220596E-1,3.785571754E-1,6.527848611E-1
7.750670920E-1,3.628450036E-1,-3.572525382E-1,3.561872840E-1,6.214139152E-1
7.775935500E-1,3.276923001E-1,-3.593829870E-1,3.402087986E-1,5.935321403E-1
7.801200090E-1,2.946700752E-1,-3.551220596E-1,3.210346103E-1,5.621435327E-1
7.827286030E-1,2.637783289E-1,-3.476654291E-1,3.029256463E-1,5.312383689E-1
7.852550610E-1,2.318213433E-1,-3.412740231E-1,2.880123854E-1,5.031503037E-1
7.877815190E-1,2.083862126E-1,-3.316869438E-1,2.730991244E-1,4.775187682E-1
7.903079780E-1,1.881467849E-1,-3.157084286E-1,2.571206093E-1,4.485332009E-1
7.928344880E-1,1.647116542E-1,-3.050560951E-1,2.400768995E-1,4.216942825E-1
7.953609460E-1,1.508636326E-1,-2.975994647E-1,2.240983993E-1,4.019270699E-1
7.978874050E-1,1.359503716E-1,-2.890776098E-1,2.081198990E-1,3.812640298E-1
8.004138630E-1,1.210371032E-1,-2.720338702E-1,1.932066381E-1,3.549383213E-1
8.029403210E-1,1.114500016E-1,-2.592510879E-1,1.761629134E-1,3.326643977E-1
8.054668320E-1,1.061238423E-1,-2.432725877E-1,1.612496525E-1,3.105563914E-1
8.079932900E-1,9.440627694E-2,-2.283593267E-1,1.505973190E-1,2.893787824E-1
8.105197480E-1,8.268871158E-2,-2.177069932E-1,1.399449855E-1,2.716953384E-1
8.131296440E-1,7.416684926E-2,-2.027937323E-1,1.314231306E-1,2.527806532E-1
8.156561030E-1,7.097115368E-2,-1.846847683E-1,1.197055578E-1,2.312461651E-1
8.181825610E-1,6.244928762E-2,-1.697715074E-1,1.154446304E-1,2.145920337E-1
8.207090190E-1,5.605788901E-2,-1.591191888E-1,1.101184636E-1,2.014633445E-1
8.232355300E-1,5.605788901E-2,-1.463363916E-1,1.037270650E-1,1.879258642E-1
8.257619880E-1,5.605788901E-2,-1.335535944E-1,1.026618332E-1,1.775345078E-1
8.282884460E-1,5.712312087E-2,-1.197055578E-1,1.026618332E-1,1.677257389E-1
8.308149050E-1,6.138405204E-2,-1.079879999E-1,1.015966013E-1,1.604720517E-1
8.333413630E-1,6.457975507E-2,-9.946613014E-2,1.047922969E-1,1.582576421E-1
8.358678730E-1,7.097115368E-2,-8.774857223E-2,1.079879999E-1,1.561989907E-1
8.383943320E-1,8.268871158E-2,-7.603100687E-2,1.122489274E-1,1.588016332E-1
8.409207900E-1,9.440627694E-2,-6.963960826E-2,1.122489274E-1,1.623639180E-1
8.435349050E-1,1.103847697E-1,-6.431344151E-2,1.154446304E-1,1.721873365E-1
8.460613630E-1,1.252980381E-1,-6.005251035E-2,1.197055578E-1,1.833993537E-1
8.485878210E-1,1.380808353E-1,-6.005251035E-2,1.218360290E-1,1.936921244E-1
8.511142800E-1,1.593854874E-1,-6.324820966E-2,1.271621883E-1,2.134813616E-1
8.536407900E-1,1.817553788E-1,-6.857437640E-2,1.260969639E-1,2.315985905E-1
8.561672480E-1,1.945381761E-1,-7.922670245E-2,1.303578913E-1,2.472147895E-1
8.586937070E-1,2.147776037E-1,-9.200949967E-2,1.314231306E-1,2.680805968E-1
8.612201650E-1,2.328865677E-1,-1.015966013E-1,1.324883550E-1,2.865504965E-1
8.637466230E-1,2.488650680E-1,-1.143793985E-1,1.346188188E-1,3.051863287E-1
8.662730820E-1,2.627131045E-1,-1.292926520E-1,1.367492825E-1,3.231642483E-1
8.687995920E-1,2.744306624E-1,-1.410102248E-1,1.346188188E-1,3.366278336E-1
8.713260500E-1,2.818872929E-1,-1.559234858E-1,1.335535944E-1,3.487250233E-1
8.739304780E-1,2.925396264E-1,-1.644453406E-1,1.399449855E-1,3.636018455E-1
8.764569360E-1,2.968005538E-1,-1.719019860E-1,1.399449855E-1,3.704395504E-1
8.789833940E-1,2.957353294E-1,-1.804238409E-1,1.356840581E-1,3.720514897E-1
8.815098530E-1,2.925396264E-1,-1.825543046E-1,1.356840581E-1,3.705612915E-1
8.840363630E-1,2.893439233E-1,-1.825543046E-1,1.367492825E-1,3.684377103E-1
8.865628210E-1,2.872134447E-1,-1.846847683E-1,1.346188188E-1,3.670453008E-1
8.890892800E-1,2.733654380E-1,-1.804238409E-1,1.346188188E-1,3.541237798E-1
8.916157380E-1,2.605826259E-1,-1.719019860E-1,1.324883550E-1,3.391264689E-1
8.941421960E-1,2.509955168E-1,-1.687062830E-1,1.324883550E-1,3.301722635E-1
8.966687070E-1,2.339518070E-1,-1.516625583E-1,1.303578913E-1,3.077794006E-1
8.991951650E-1,2.179733068E-1,-1.410102248E-1,1.282274276E-1,2.895488200E-1
9.017216230E-1,2.062557489E-1,-1.303578913E-1,1.239664927E-1,2.736828549E-1
9.043323000E-1,1.934729517E-1,-1.122489274E-1,1.250317246E-1,2.562509256E-1
9.068587590E-1,1.774944514E-1,-8.987903595E-2,1.218360290E-1,2.332949621E-1
9.093852170E-1,1.721682847E-1,-7.283531129E-2,1.197055578E-1,2.219827052E-1
9.119116750E-1,1.657768935E-1,-5.046541616E-2,1.175750941E-1,2.094102180E-1
9.144381860E-1,1.636464298E-1,-2.703028731E-2,1.165098622E-1,2.026951860E-1
9.169646440E-1,1.604507267E-1,-5.725627299E-3,1.165098622E-1,1.983727968E-1
9.194911030E-1,1.604507267E-1,1.664426550E-2,1.175750941E-1,1.996130508E-1
9.220175610E-1,1.625811905E-1,4.114462435E-2,1.197055578E-1,2.060459759E-1
9.245440190E-1,1.615159512E-1,5.818835273E-2,1.197055578E-1,2.092909636E-1
9.270705300E-1,1.679073572E-1,7.203638554E-2,1.207707971E-1,2.190153120E-1
9.295969880E-1,1.711030602E-1,8.162347972E-2,1.282274276E-1,2.288687896E-1
9.321234460E-1,1.711030602E-1,9.014534205E-2,1.314231306E-1,2.338257453E-1
9.347315710E-1,1.732335240E-1,9.866721183E-2,1.378145218E-1,2.423590620E-1
9.372580300E-1,1.764292270E-1,1.050586104E-1,1.442059278E-1,2.509181807E-1
9.397844880E-1,1.785596907E-1,1.050586104E-1,1.484668553E-1,2.548789554E-1
9.423109460E-1,1.774944514E-1,1.018629074E-1,1.505973190E-1,2.540863725E-1
9.448374570E-1,1.785596907E-1,1.050586104E-1,1.537930220E-1,2.580177676E-1
9.473639150E-1,1.796249151E-1,1.029281393E-1,1.559234858E-1,2.591745462E-1
9.498903730E-1,1.753639877E-1,1.007976755E-1,1.537930220E-1,2.540964250E-1
9.524168320E-1,1.700378209E-1,9.653674066E-2,1.559234858E-1,2.500886568E-1
9.549432900E-1,1.668421179E-1,9.014534205E-2,1.569887102E-1,2.461867789E-1
9.574698000E-1,1.593854874E-1,8.268871158E-2,1.537930220E-1,2.364179567E-1
9.599962590E-1,1.540593207E-1,7.736254483E-2,1.495320797E-1,2.282084146E-1
9.625227170E-1,1.466026902E-1,6.671021879E-2,1.474016160E-1,2.183342357E-1
9.651313630E-1,1.455374658E-1,6.031882018E-2,1.399449855E-1,2.107228345E-1
9.676578210E-1,1.370155960E-1,5.286218971E-2,1.367492825E-1,2.006690084E-1
9.701842800E-1,1.284937263E-1,4.327509180E-2,1.292926520E-1,1.873498362E-1
9.727107380E-1,1.242327988E-1,3.475322574E-2,1.218360290E-1,1.774418016E-1
9.752372480E-1,1.167761683E-1,2.942706272E-2,1.197055578E-1,1.698000179E-1
9.777637070E-1,1.082543060E-1,2.303566411E-2,1.122489274E-1,1.576371095E-1
9.802901650E-1,1.018629074E-1,1.877473295E-2,1.058575287E-1,1.481025283E-1
9.828166230E-1,9.334104508E-2,1.025286783E-2,9.627043456E-2,1.344829676E-1
9.853430820E-1,8.268871158E-2,5.991935730E-3,9.094426781E-2,1.230617169E-1
9.878695920E-1,7.629731297E-2,-3.994623839E-4,8.561810106E-2,1.146817281E-1
9.903960500E-1,6.990591437E-2,-9.986559860E-3,7.922670245E-2,1.061293485E-1
9.929225090E-1,6.138405204E-2,-1.531272475E-2,7.390054315E-2,9.728191847E-2
9.955331860E-1,6.244928762E-2,-2.170412242E-2,6.963960826E-2,9.602425472E-2
9.980596440E-1,6.031882018E-2,-2.809552103E-2,6.431344151E-2,9.254154272E-2
1.000586103E0,6.031882018E-2,-3.235645220E-2,6.111774594E-2,9.176425739E-2
1.003112561E0,6.351451576E-2,-3.555215150E-2,5.685681105E-2,9.236203847E-2
1.005639071E0,6.138405204E-2,-3.555215150E-2,5.685681105E-2,9.091014401E-2
1.008165530E0,7.310161740E-2,-3.768261895E-2,5.579157919E-2,9.938071515E-2
1.010691988E0,7.949301600E-2,-3.874785081E-2,5.792204663E-2,1.057142328E-1
1.013218446E0,8.588441461E-2,-4.726971686E-2,6.111774594E-2,1.155246193E-1
1.015744905E0,9.014534205E-2,-4.620448127E-2,6.005251035E-2,1.177596738E-1
1.018271415E0,9.866721183E-2,-4.194355011E-2,5.685681105E-2,1.213555810E-1
1.020797873E0,1.039933711E-1,-3.555215150E-2,5.579157919E-2,1.232528986E-1
1.023324332E0,1.050586104E-1,-3.022598661E-2,5.259587988E-2,1.213146672E-1
1.025936884E0,1.061238423E-1,-2.383458801E-2,5.153064802E-2,1.203568244E-1
1.028463342E0,1.061238423E-1,-1.744319126E-2,4.833494872E-2,1.179101441E-1
1.030989800E0,1.007976755E-1,-9.986559860E-3,5.046541616E-2,1.131665189E-1
1.033516259E0,9.227581322E-2,-7.856093347E-3,4.620448127E-2,1.034958840E-1
1.036042769E0,8.268871158E-2,-2.529928461E-3,4.300878197E-2,9.323936340E-2
1.038569228E0,7.736254483E-2,2.796236658E-3,3.874785081E-2,8.656892182E-2
1.041095686E0,6.351451576E-2,3.861469682E-3,3.661738336E-2,7.341551215E-2
1.043622144E0,5.286218971E-2,7.057168987E-3,3.448691964E-2,6.351033271E-2
1.046148603E0,4.434032366E-2,5.991935730E-3,3.022598661E-2,5.399609118E-2
1.048675113E0,2.942706272E-2,4.926702939E-3,2.596505545E-2,3.955260455E-2
1.051201571E0,2.410089783E-2,5.991935730E-3,2.383458801E-2,3.442156527E-2
1.053728030E0,1.025286783E-2,1.731003635E-3,2.063889056E-2,2.311020285E-2
1.056334280E0,-3.595161485E-3,-3.595161485E-3,1.637795754E-2,1.714899021E-2
1.058860738E0,-1.211702544E-2,-7.856093347E-3,1.318225823E-2,1.955281157E-2
1.061387196E0,-2.276935615E-2,-8.921326138E-3,6.790860556E-3,2.538009902E-2
1.063913655E0,-3.342168778E-2,-1.105179265E-2,3.595161485E-3,3.538469332E-2
1.066440113E0,-4.407401755E-2,-1.531272475E-2,-4.926702939E-3,4.691770417E-2
1.068966623E0,-5.472634733E-2,-1.744319126E-2,-9.187635034E-3,5.816915549E-2
1.071493082E0,-6.537867337E-2,-2.489982173E-2,-1.344856713E-2,7.124069071E-2
1.074019540E0,-7.709623873E-2,-2.916075476E-2,-1.557903271E-2,8.388614847E-2
1.076545998E0,-8.242240548E-2,-3.768261895E-2,-1.770949923E-2,9.234207632E-2
1.079072509E0,-9.094426781E-2,-4.407401755E-2,-2.303566411E-2,1.036533680E-1
1.081598967E0,-9.307473898E-2,-5.046541616E-2,-2.836182900E-2,1.096086612E-1
1.084125425E0,-9.627043456E-2,-5.792204663E-2,-3.262276202E-2,1.169923273E-1
1.086734071E0,-1.015966013E-1,-6.324820966E-2,-3.262276202E-2,1.240421300E-1
1.089260530E0,-1.058575287E-1,-6.750914454E-2,-3.368799388E-2,1.299930072E-1
1.091786988E0,-1.058575287E-1,-6.750914454E-2,-3.262276202E-2,1.297210299E-1
1.094313446E0,-1.037270650E-1,-7.070484012E-2,-3.155753016E-2,1.294386192E-1
1.096839957E0,-1.015966013E-1,-7.603100687E-2,-2.729659714E-2,1.297986426E-1
1.099366415E0,-1.037270650E-1,-7.496577501E-2,-2.197043039E-2,1.298532682E-1
1.101892873E0,-9.946613014E-2,-7.603100687E-2,-2.410089783E-2,1.274954051E-1
1.104419332E0,-1.005313694E-1,-7.390054315E-2,-1.877473295E-2,1.261758183E-1
1.106945790E0,-9.946613014E-2,-7.390054315E-2,-1.451379992E-2,1.247615795E-1
1.109472300E0,-9.946613014E-2,-7.177007198E-2,-8.122402243E-3,1.229244796E-1
1.111998759E0,-1.037270650E-1,-7.070484012E-2,-5.991935730E-3,1.256757006E-1
1.114525217E0,-1.026618332E-1,-6.750914454E-2,-1.731003635E-3,1.228817845E-1
1.117135582E0,-1.047922969E-1,-6.963960826E-2,1.464695437E-3,1.258302263E-1
1.119662040E0,-1.069227681E-1,-7.177007198E-2,1.464695437E-3,1.287849638E-1
1.122188498E0,-1.058575287E-1,-7.603100687E-2,-2.796236658E-3,1.303623770E-1
1.124714957E0,-1.026618332E-1,-7.283531129E-2,-9.187635034E-3,1.262095369E-1
1.127241467E0,-9.627043456E-2,-6.537867337E-2,-1.451379992E-2,1.172732616E-1
1.129767925E0,-9.307473898E-2,-5.472634733E-2,-2.410089783E-2,1.106288091E-1
1.132294384E0,-8.561810106E-2,-4.087831825E-2,-3.262276202E-2,1.003281652E-1
1.134820842E0,-8.561810106E-2,-3.022598661E-2,-3.688369319E-2,9.800243017E-2
1.137347300E0,-8.135717362E-2,-2.170412242E-2,-4.327509180E-2,9.467202438E-2
1.139873811E0,-8.135717362E-2,-1.318225823E-2,-4.966649041E-2,9.622640958E-2
1.142400269E0,-8.455286920E-2,-9.986559860E-3,-5.605788901E-2,1.019382460E-1
1.144926728E0,-8.774857223E-2,-4.660394508E-3,-6.457975507E-2,1.090507954E-1
1.147535894E0,-8.987903595E-2,1.731003635E-3,-7.310161740E-2,1.158666645E-1
1.150062353E0,-9.307473898E-2,-3.994623839E-4,-7.949301600E-2,1.224018227E-1
1.152588811E0,-9.733566642E-2,6.657706108E-4,-8.375394344E-2,1.284110519E-1
1.155115269E0,-9.946613014E-2,-2.529928461E-3,-8.814803511E-2,1.329285059E-1
1.157641780E0,-1.047922969E-1,-1.211702544E-2,-9.240896255E-2,1.402414495E-1
1.160168238E0,-1.037270650E-1,-2.489982173E-2,-9.560466558E-2,1.432464911E-1
1.162694696E0,-1.058575287E-1,-3.661738336E-2,-9.134373069E-2,1.445348619E-1
1.165221155E0,-1.069227681E-1,-5.579157919E-2,-9.240896255E-2,1.519361543E-1
1.167747613E0,-1.079879999E-1,-7.283531129E-2,-9.347419441E-2,1.603240959E-1
1.170274071E0,-1.111836955E-1,-9.520520270E-2,-8.921326697E-2,1.714201032E-1
1.172800582E0,-1.101184636E-1,-1.154446304E-1,-8.268871158E-2,1.796968607E-1
1.175327040E0,-1.101184636E-1,-1.324883550E-1,-8.268871158E-2,1.910933366E-1
1.177935373E0,-1.165098622E-1,-1.569887102E-1,-8.268871158E-2,2.122673459E-1
1.180461832E0,-1.165098622E-1,-1.750976741E-1,-7.949301600E-2,2.248396831E-1
1.182988290E0,-1.143793985E-1,-1.942718774E-1,-7.842778414E-2,2.386946302E-1
1.185514748E0,-1.165098622E-1,-2.155765295E-1,-7.523208112E-2,2.563350427E-1
1.188041259E0,-1.154446304E-1,-2.336854935E-1,-7.949301600E-2,2.724986461E-1
1.190567717E0,-1.101184636E-1,-2.432725877E-1,-7.842778414E-2,2.783137533E-1
1.193094175E0,-1.090532318E-1,-2.592510879E-1,-8.055824786E-2,2.925634380E-1
1.195620634E0,-1.122489274E-1,-2.688381970E-1,-7.842778414E-2,3.017030248E-1
1.198147092E0,-1.122489274E-1,-2.730991244E-1,-7.842778414E-2,3.055059259E-1
1.200673603E0,-1.079879999E-1,-2.805557549E-1,-7.736254483E-2,3.104156940E-1
1.203200061E0,-1.069227681E-1,-2.816209793E-1,-7.736254483E-2,3.110109607E-1
1.205726519E0,-1.101184636E-1,-2.805557549E-1,-8.055824786E-2,3.119731382E-1
1.208336155E0,-1.175750941E-1,-2.762948275E-1,-7.949301600E-2,3.106153152E-1
1.210862613E0,-1.229012609E-1,-2.709686458E-1,-7.842778414E-2,3.077005757E-1
1.213389071E0,-1.282274276E-1,-2.571206093E-1,-8.375394344E-2,2.992791405E-1
1.215915530E0,-1.356840581E-1,-2.464682907E-1,-8.814803511E-2,2.948336107E-1
1.218442040E0,-1.527277827E-1,-2.326202542E-1,-9.240896255E-2,2.932189875E-1
1.220968498E0,-1.612496525E-1,-2.240983993E-1,-9.666989744E-2,2.925177124E-1
1.223494957E0,-1.665758193E-1,-2.187722325E-1,-1.030612960E-1,2.936501729E-1
1.226021415E0,-1.761629134E-1,-2.123808414E-1,-1.094526947E-1,2.968482545E-1
1.228547873E0,-1.804238409E-1,-2.038589716E-1,-1.179745570E-1,2.966972173E-1
1.231074384E0,-1.857500076E-1,-1.953371018E-1,-1.233007237E-1,2.964164590E-1
1.233600842E0,-1.846847683E-1,-1.857500076E-1,-1.275616586E-1,2.913477402E-1
1.236127300E0,-1.846847683E-1,-1.772281379E-1,-1.328878254E-1,2.884050114E-1
1.238741988E0,-1.836195439E-1,-1.676410437E-1,-1.371487528E-1,2.839532300E-1
1.241268446E0,-1.868152469E-1,-1.559234858E-1,-1.478010863E-1,2.847055163E-1
1.243794905E0,-1.868152469E-1,-1.463363916E-1,-1.488663107E-1,2.801347077E-1
1.246321363E0,-1.825543046E-1,-1.388797611E-1,-1.488663107E-1,2.734498869E-1
1.248847873E0,-1.825543046E-1,-1.292926520E-1,-1.499315500E-1,2.692993384E-1
1.251374332E0,-1.878804713E-1,-1.271621883E-1,-1.520620137E-1,2.731156342E-1
1.253900790E0,-1.793586165E-1,-1.207707971E-1,-1.573881805E-1,2.674437102E-1
1.256427248E0,-1.708367467E-1,-1.197055578E-1,-1.552577168E-1,2.600376381E-1
1.258953707E0,-1.676410437E-1,-1.165098622E-1,-1.541924775E-1,2.558385968E-1
1.261480217E0,-1.612496525E-1,-1.165098622E-1,-1.520620137E-1,2.503973931E-1
1.264006675E0,-1.495320797E-1,-1.282274276E-1,-1.488663107E-1,2.469074614E-1
1.266533134E0,-1.431406885E-1,-1.431406885E-1,-1.478010863E-1,2.506465131E-1
1.269112196E0,-1.367492825E-1,-1.633801162E-1,-1.414096802E-1,2.557149317E-1
1.271638655E0,-1.346188188E-1,-1.878804713E-1,-1.403444558E-1,2.704031512E-1
1.274165113E0,-1.292926520E-1,-2.198374718E-1,-1.392792165E-1,2.905921610E-1
1.276691571E0,-1.292926520E-1,-2.539249361E-1,-1.360835135E-1,3.157739471E-1
1.279218082E0,-1.335535944E-1,-2.880123854E-1,-1.328878254E-1,3.441611117E-1
1.281744540E0,-1.420754492E-1,-3.199693561E-1,-1.286268830E-1,3.729754645E-1
1.284270998E0,-1.495320797E-1,-3.519263566E-1,-1.243659556E-1,4.020931412E-1
1.286797457E0,-1.548582464E-1,-3.796224296E-1,-1.158440933E-1,4.260447388E-1
1.289323915E0,-1.633801162E-1,-4.030575454E-1,-1.126483902E-1,4.492639615E-1
1.291850425E0,-1.804238409E-1,-4.190360308E-1,-1.105179265E-1,4.694232307E-1
1.294376884E0,-1.921414137E-1,-4.286231399E-1,-1.062569916E-1,4.815876526E-1
1.296903342E0,-2.081198990E-1,-4.339492917E-1,-9.666989744E-2,4.908879192E-1
1.299538342E0,-2.283593267E-1,-4.328840673E-1,-9.773512930E-2,4.990879214E-1
1.302064800E0,-2.464682907E-1,-4.339492917E-1,-9.986559302E-2,5.089516114E-1
1.304591259E0,-2.613815665E-1,-4.403406978E-1,-1.041265279E-1,5.225539085E-1
1.307117717E0,-2.912080884E-1,-4.286231399E-1,-1.158440933E-1,5.309800380E-1
1.309644228E0,-3.199693561E-1,-4.222317338E-1,-1.179745570E-1,5.427504233E-1
1.312170686E0,-3.466002047E-1,-4.264926612E-1,-1.233007237E-1,5.632324214E-1
1.314697144E0,-3.774919510E-1,-4.328840673E-1,-1.211702600E-1,5.870017212E-1
1.317223603E0,-4.062532485E-1,-4.339492917E-1,-1.222354919E-1,6.068733024E-1
1.319750061E0,-4.392754734E-1,-4.339492917E-1,-1.243659556E-1,6.298744479E-1
1.322276571E0,-4.744281471E-1,-4.371449947E-1,-1.264964193E-1,6.574033444E-1
1.324803030E0,-5.074504018E-1,-4.328840673E-1,-1.286268830E-1,6.792933100E-1
1.327329488E0,-5.404726267E-1,-4.232969582E-1,-1.307573467E-1,6.988479511E-1
1.329938394E0,-5.702991486E-1,-4.030575454E-1,-1.328878254E-1,7.108837302E-1
1.332464853E0,-5.947995186E-1,-3.764267266E-1,-1.328878254E-1,7.163398090E-1
1.334991311E0,-6.192998290E-1,-3.466002047E-1,-1.339530498E-1,7.222239263E-1
1.337517769E0,-6.374087930E-1,-3.050560951E-1,-1.307573467E-1,7.186422436E-1
1.340044280E0,-6.523220539E-1,-2.603163123E-1,-1.296921223E-1,7.142189378E-1
1.342570738E0,-6.576482654E-1,-2.091851383E-1,-1.233007237E-1,7.010440297E-1
1.345097196E0,-6.629744172E-1,-1.548582464E-1,-1.158440933E-1,6.906055374E-1
1.347623655E0,-6.608439088E-1,-1.005313694E-1,-1.073222235E-1,6.770075979E-1
1.350150113E0,-6.491263509E-1,-4.194355011E-2,-9.880036116E-2,6.579405689E-1
1.352676623E0,-6.342130899E-1,1.770949923E-2,-8.814803511E-2,6.405544051E-1
1.355203082E0,-6.214303374E-1,7.310161740E-2,-7.416684926E-2,6.300954152E-1
1.357729540E0,-5.905385613E-1,1.178414002E-1,-6.138405204E-2,6.053018998E-1
1.360340217E0,-5.607120395E-1,1.625811905E-1,-5.073172227E-2,5.860071180E-1
1.362866675E0,-5.308855176E-1,2.009295821E-1,-3.368799388E-2,5.686360969E-1
1.365393134E0,-4.999937415E-1,2.243647128E-1,-1.877473295E-2,5.483482074E-1
1.367919592E0,-4.680367708E-1,2.435389012E-1,-1.731003635E-3,5.276102838E-1
1.370446050E0,-4.371449947E-1,2.584521770E-1,1.424749196E-2,5.080317562E-1
1.372972561E0,-4.105141759E-1,2.648435533E-1,3.129122034E-2,4.895335911E-1
1.375499019E0,-3.817528784E-1,2.648435533E-1,4.726971686E-2,4.670244041E-1
1.378025478E0,-3.561872840E-1,2.659088075E-1,6.431344151E-2,4.491248089E-1
1.380551936E0,-3.316869438E-1,2.595174015E-1,8.348763734E-2,4.293433310E-1
1.383078446E0,-2.975994647E-1,2.541912198E-1,9.840089828E-2,4.035608435E-1
1.385604905E0,-2.656424940E-1,2.467346042E-1,1.165098622E-1,3.808128773E-1
1.388131363E0,-2.315550297E-1,2.339518070E-1,1.356840581E-1,3.560355929E-1
1.390740269E0,-1.878804713E-1,2.201037705E-1,1.548582464E-1,3.282161145E-1
1.393266728E0,-1.399449855E-1,2.126471400E-1,1.719019860E-1,3.071704705E-1
1.395793186E0,-8.668334037E-2,1.987991184E-1,1.942718774E-1,2.911643064E-1
1.398319644E0,-2.063889056E-2,1.892120093E-1,2.177069932E-1,2.891772522E-1
1.400846155E0,4.860125855E-2,1.860163212E-1,2.390116602E-1,3.067421194E-1
1.403372613E0,1.242327988E-1,1.849510819E-1,2.603163123E-1,3.426445293E-1
1.405899071E0,2.019948065E-1,1.902772486E-1,2.826862037E-1,3.961298057E-1
1.408425530E0,2.850829959E-1,1.966686398E-1,3.082517982E-1,4.636486164E-1
1.410951988E0,3.649754524E-1,2.062557489E-1,3.316869438E-1,5.345696807E-1
1.413478446E0,4.491288662E-1,2.158428431E-1,3.508611321E-1,6.094328555E-1
1.416004957E0,5.226299763E-1,2.296908647E-1,3.721657991E-1,6.814744071E-1
1.418531415E0,5.982614756E-1,2.435389012E-1,3.945356905E-1,7.568925952E-1
1.421117717E0,6.717625856E-1,2.595174015E-1,4.169055820E-1,8.321204945E-1
1.423644228E0,7.356765866E-1,2.765611112E-1,4.371449947E-1,8.993341063E-1
1.426170686E0,7.921339273E-1,2.957353294E-1,4.573844373E-1,9.613199610E-1
1.428697144E0,8.485912681E-1,3.085181117E-1,4.776238501E-1,1.021476925E0
1.431223655E0,8.954614997E-1,3.223661482E-1,4.925371110E-1,1.071617486E0
1.433750113E0,9.348751307E-1,3.351489305E-1,5.085155964E-1,1.115752852E0
1.436276571E0,9.742887616E-1,3.500621915E-1,5.223636627E-1,1.159588688E0
1.438803030E0,1.003050089E0,3.553883731E-1,5.351464152E-1,1.191130582E0
1.441329488E0,1.022224188E0,3.649754524E-1,5.468640327E-1,1.215405135E0
1.443855998E0,1.038202763E0,3.681711555E-1,5.543206334E-1,1.233161117E0
1.446382457E0,1.044594169E0,3.671059310E-1,5.660381913E-1,1.243520396E0
1.448908915E0,1.045659423E0,3.703016341E-1,5.724295974E-1,1.248279846E0
1.451541936E0,1.035007000E0,3.713668585E-1,5.777557492E-1,1.242157212E0
1.454068394E0,1.026485205E0,3.703016341E-1,5.798861980E-1,1.235743978E0
1.456594853E0,1.015832901E0,3.734973371E-1,5.830819011E-1,1.229390600E0
1.459121311E0,9.923977256E-1,3.692364097E-1,5.862776041E-1,1.210334748E0
1.461647821E0,9.647016525E-1,3.649754524E-1,5.905385613E-1,1.188525200E0
1.464174280E0,9.359403849E-1,3.607145250E-1,5.894733071E-1,1.163433777E0
1.466700738E0,8.997224569E-1,3.575188220E-1,5.873428583E-1,1.132383257E0
1.469227196E0,8.635045290E-1,3.468665183E-1,5.873428583E-1,1.100421777E0
1.471753655E0,8.230256438E-1,3.383446336E-1,5.820167065E-1,1.063292880E0
1.474280165E0,7.740249634E-1,3.266270757E-1,5.766905546E-1,1.019005342E0
1.476806623E0,7.271546721E-1,3.106485903E-1,5.671034455E-1,9.730687447E-1
1.479333082E0,6.781539917E-1,2.978657782E-1,5.553858876E-1,9.257809365E-1
1.481928811E0,6.302185059E-1,2.818872929E-1,5.489944816E-1,8.820605148E-1
1.484455269E0,5.833482146E-1,2.701697350E-1,5.351464152E-1,8.364619005E-1
1.486981728E0,5.492607951E-1,2.659088075E-1,5.287550688E-1,8.074508268E-1
1.489508186E0,5.066514611E-1,2.382127345E-1,5.149070024E-1,7.606380421E-1
1.492034696E0,4.533897936E-1,1.913424879E-1,4.861457348E-1,6.917455660E-1
1.494561155E0,4.097152650E-1,1.572550237E-1,4.563191831E-1,6.331057872E-1
1.497087613E0,3.617797792E-1,1.263632625E-1,4.243622124E-1,5.717827997E-1
1.499614071E0,3.127790391E-1,8.588441461E-2,3.902747631E-1,5.074655168E-1
1.502140530E0,2.680392563E-1,4.540555924E-2,3.497959077E-1,4.430167997E-1
1.504667040E0,2.232994735E-1,8.122402243E-3,3.093170524E-1,3.815831065E-1
1.507193498E0,1.913424879E-1,-2.383458801E-2,2.699034214E-1,3.317045254E-1
1.509719957E0,1.647116542E-1,-5.579157919E-2,2.262288630E-1,2.853456286E-1
1.512343498E0,1.434070021E-1,-8.242240548E-2,1.846847683E-1,2.479263698E-1
1.514869957E0,1.221023351E-1,-1.079879999E-1,1.484668553E-1,2.204830957E-1
1.517396415E0,1.093195379E-1,-1.356840581E-1,1.111836955E-1,2.066947970E-1
1.519922873E0,1.039933711E-1,-1.601844132E-1,7.390054315E-2,2.047802670E-1
1.522449384E0,9.014534205E-2,-1.836195439E-1,4.087831825E-2,2.085985535E-1
1.524975842E0,8.162347972E-2,-2.017285079E-1,5.725627299E-3,2.176914471E-1
1.527502300E0,8.268871158E-2,-2.166417688E-1,-2.623136342E-2,2.333648719E-1
1.530028759E0,7.842778414E-2,-2.294245660E-1,-5.925358832E-2,2.495947446E-1
1.532555217E0,7.416684926E-2,-2.368811965E-1,-8.921326697E-2,2.637658617E-1
1.535081728E0,7.097115368E-2,-2.422073632E-1,-1.179745570E-1,2.786024184E-1
1.537608186E0,6.457975507E-2,-2.485987544E-1,-1.446053833E-1,2.947585492E-1
1.540134644E0,6.138405204E-2,-2.549901605E-1,-1.659100503E-1,3.103451765E-1
1.542742509E0,5.073172227E-2,-2.581858635E-1,-1.861494780E-1,3.223123887E-1
1.545268967E0,4.327509180E-2,-2.592510879E-1,-1.989322603E-1,3.296329843E-1
1.547795425E0,3.581846133E-2,-2.624467909E-1,-2.095845938E-1,3.377676453E-1
1.550321884E0,2.942706272E-2,-2.613815665E-1,-2.191716880E-1,3.423777214E-1
1.552848394E0,2.516612969E-2,-2.581858635E-1,-2.213021666E-1,3.409808252E-1
1.555374853E0,2.623136342E-2,-2.560553849E-1,-2.170412242E-1,3.366887844E-1
1.557901311E0,3.049229458E-2,-2.454030514E-1,-2.138455361E-1,3.269286634E-1
1.560427769E0,3.688369319E-2,-2.379464209E-1,-2.053236663E-1,3.164438560E-1
1.562954228E0,3.901416063E-2,-2.230331600E-1,-1.957365721E-1,2.992970111E-1
1.565480686E0,5.073172227E-2,-2.059894353E-1,-1.829537749E-1,2.801382496E-1
1.568007196E0,6.457975507E-2,-1.889457107E-1,-1.691057384E-1,2.616634806E-1
1.570533655E0,7.416684926E-2,-1.719019860E-1,-1.509967744E-1,2.405224318E-1
1.573149800E0,8.588441461E-2,-1.463363916E-1,-1.318225861E-1,2.148666246E-1
1.575676259E0,9.973244369E-2,-1.143793985E-1,-1.105179265E-1,1.877323073E-1
1.578202717E0,1.135804728E-1,-8.561810106E-2,-8.921326697E-2,1.678987493E-1
1.580729175E0,1.316894293E-1,-4.940018058E-2,-6.671021879E-2,1.556686767E-1
1.583255686E0,1.423417628E-1,-1.211702544E-2,-4.753602296E-2,1.505578733E-1
1.585782144E0,1.551245600E-1,2.623136342E-2,-2.516612969E-2,1.593268578E-1
1.588308603E0,1.689725816E-1,6.671021879E-2,1.464695437E-3,1.816703937E-1
1.590835061E0,1.721682847E-1,1.071890742E-1,2.809552103E-2,2.047456328E-1
1.593361519E0,1.817553788E-1,1.359503716E-1,5.153064802E-2,2.327507873E-1
1.595888030E0,1.860163212E-1,1.753639877E-1,7.283531129E-2,2.658187023E-1
1.598414488E0,1.924077123E-1,2.105166763E-1,1.005313694E-1,3.023980076E-1
1.600940946E0,1.977338791E-1,2.456693649E-1,1.207707971E-1,3.376946983E-1
1.603542821E0,1.998643428E-1,2.786915898E-1,1.378145218E-1,3.696046539E-1
1.606069280E0,2.041252851E-1,3.085181117E-1,1.516625583E-1,3.998150684E-1
1.608595738E0,2.051905096E-1,3.340837061E-1,1.665758193E-1,4.259842385E-1
1.611122196E0,2.051905096E-1,3.617797792E-1,1.857500076E-1,4.555116016E-1
1.613648707E0,2.083862126E-1,3.884105980E-1,2.006632686E-1,4.843070861E-1
1.616175165E0,2.073209733E-1,4.033238590E-1,2.091851383E-1,4.994101954E-1
1.618701623E0,2.051905096E-1,4.150414169E-1,2.187722325E-1,5.120779361E-1
1.621228082E0,2.073209733E-1,4.288894534E-1,2.294245660E-1,5.287379131E-1
1.623754540E0,2.062557489E-1,4.331503808E-1,2.379464209E-1,5.355176800E-1
1.626280998E0,2.094514370E-1,4.320851564E-1,2.432725877E-1,5.382834186E-1
1.628807509E0,2.041252851E-1,4.278241992E-1,2.485987544E-1,5.352588329E-1
1.631333967E0,2.019948065E-1,4.214328229E-1,2.571206093E-1,5.334027876E-1
1.633947978E0,2.030600458E-1,4.086500108E-1,2.603163123E-1,5.253501651E-1
1.636474436E0,2.009295821E-1,3.948020041E-1,2.635120153E-1,5.154414629E-1
1.639000894E0,2.009295821E-1,3.766930401E-1,2.677729428E-1,5.039570342E-1
1.641527353E0,1.966686398E-1,3.564535975E-1,2.709686458E-1,4.890416425E-1
1.644053863E0,1.987991184E-1,3.319532275E-1,2.752295732E-1,4.748319205E-1
1.646580321E0,1.977338791E-1,3.031919599E-1,2.762948275E-1,4.553711488E-1
1.649106780E0,1.977338791E-1,2.765611112E-1,2.805557549E-1,4.407905021E-1
1.651633238E0,1.998643428E-1,2.488650680E-1,2.794905007E-1,4.242576075E-1
1.654159696E0,2.030600458E-1,2.179733068E-1,2.858819067E-1,4.128852253E-1
1.656686207E0,2.062557489E-1,1.924077123E-1,2.890776098E-1,4.038911068E-1
1.659212665E0,2.126471400E-1,1.647116542E-1,2.901428342E-1,3.956407454E-1
1.661739123E0,2.137123793E-1,1.402112991E-1,2.933385372E-1,3.890754257E-1
1.664345738E0,2.158428431E-1,1.146457046E-1,2.965342402E-1,3.842711622E-1
1.666872196E0,2.169080675E-1,9.014534205E-2,2.997299433E-1,3.808061598E-1
1.669398655E0,2.232994735E-1,6.777545065E-2,3.061213493E-1,3.849239498E-1
1.671925113E0,2.232994735E-1,5.073172227E-2,3.093170524E-1,3.848550395E-1
1.674451623E0,2.286256403E-1,3.688369319E-2,3.125127256E-1,3.889656718E-1
1.676978082E0,2.318213433E-1,3.049229458E-2,3.146432042E-1,3.920092616E-1
1.679504540E0,2.318213433E-1,2.516612969E-2,3.167736828E-1,3.933446776E-1
1.682030998E0,2.296908647E-1,2.410089783E-2,3.189041317E-1,3.937494023E-1
1.684557457E0,2.243647128E-1,2.729659714E-2,3.210346103E-1,3.926166700E-1
1.687083967E0,2.169080675E-1,3.581846133E-2,3.274259865E-1,3.943854061E-1
1.689610425E0,2.094514370E-1,4.540555924E-2,3.327521682E-1,3.957973910E-1
1.692136884E0,1.987991184E-1,5.605788901E-2,3.348826170E-1,3.934589477E-1
1.694745998E0,1.870815456E-1,6.671021879E-2,3.391435742E-1,3.930243274E-1
1.697272457E0,1.732335240E-1,8.162347972E-2,3.476654291E-1,3.969174938E-1
1.699798915E0,1.604507267E-1,9.760197252E-2,3.508611321E-1,3.979624540E-1
1.702325373E0,1.476679295E-1,1.114500016E-1,3.529915810E-1,3.985347871E-1
1.704851884E0,1.359503716E-1,1.231675670E-1,3.604482114E-1,4.044448865E-1
1.707378342E0,1.242327988E-1,1.338198930E-1,3.625786901E-1,4.059616466E-1
1.709904800E0,1.071890742E-1,1.508636326E-1,3.721657991E-1,4.156401272E-1
1.712431259E0,9.121058136E-2,1.615159512E-1,3.806876540E-1,4.234735677E-1
1.714957717E0,7.203638554E-2,1.721682847E-1,3.881442845E-1,4.306821852E-1
1.717484175E0,5.605788901E-2,1.785596907E-1,3.924052119E-1,4.347503886E-1
1.720010686E0,4.007939249E-2,1.838858575E-1,3.977313936E-1,4.400120768E-1
1.722537144E0,2.836182900E-2,1.902772486E-1,4.051880240E-1,4.485389164E-1
1.725146832E0,1.451379992E-2,1.956034154E-1,4.126446545E-1,4.568883424E-1
1.727673290E0,-4.660394508E-3,2.009295821E-1,4.211665094E-1,4.666643814E-1
1.730199748E0,-1.105179265E-2,1.998643428E-1,4.232969582E-1,4.682394820E-1
1.732726207E0,-1.744319126E-2,1.945381761E-1,4.307536185E-1,4.729672787E-1
1.735252717E0,-2.916075476E-2,1.902772486E-1,4.382102489E-1,4.786272070E-1
1.737779175E0,-3.661738336E-2,1.838858575E-1,4.424711764E-1,4.805575754E-1
1.740305634E0,-4.300878197E-2,1.764292270E-1,4.499278069E-1,4.851928058E-1
1.742832092E0,-4.087831825E-2,1.679073572E-1,4.541887343E-1,4.859540347E-1
1.745358550E0,-4.194355011E-2,1.551245600E-1,4.552539587E-1,4.827826192E-1
1.747885009E0,-3.981308267E-2,1.402112991E-1,4.552539587E-1,4.780172140E-1
1.750411519E0,-3.768261895E-2,1.295589656E-1,4.563191831E-1,4.758494533E-1
1.752937978E0,-3.874785081E-2,1.199718714E-1,4.531235099E-1,4.703355835E-1
1.755568446E0,-3.022598661E-2,1.146457046E-1,4.531235099E-1,4.683782265E-1
1.758094905E0,-2.276935615E-2,1.103847697E-1,4.477973282E-1,4.617636713E-1
1.760621363E0,-1.957365684E-2,1.103847697E-1,4.414059222E-1,4.554197114E-1
1.763147821E0,-1.637795754E-2,1.146457046E-1,4.403406978E-1,4.553150615E-1
1.765674332E0,-1.211702544E-2,1.221023351E-1,4.350145459E-1,4.519883380E-1
1.768200790E0,-8.921326138E-3,1.252980381E-1,4.328840673E-1,4.507413939E-1
1.770727248E0,-8.921326138E-3,1.306242049E-1,4.307536185E-1,4.502121198E-1
1.773253707E0,-9.986559860E-3,1.338198930E-1,4.286231399E-1,4.491383875E-1
1.775780165E0,-6.790860556E-3,1.370155960E-1,4.286231399E-1,4.500413152E-1
1.778306623E0,-2.529928461E-3,1.423417628E-1,4.275579154E-1,4.506366042E-1
1.780833134E0,-7.856093347E-3,1.455374658E-1,4.243622124E-1,4.486938371E-1
1.783359592E0,-6.790860556E-3,1.497983932E-1,4.222317338E-1,4.480684227E-1
1.785951363E0,-4.660394508E-3,1.476679295E-1,4.275579154E-1,4.523641318E-1
1.788477821E0,-6.790860556E-3,1.455374658E-1,4.254274368E-1,4.496840822E-1
1.791004280E0,-1.744319126E-2,1.434070021E-1,4.232969582E-1,4.472696592E-1
1.793530738E0,-2.276935615E-2,1.444722265E-1,4.243622124E-1,4.488585024E-1
1.796057248E0,-2.596505545E-2,1.391460598E-1,4.318188429E-1,4.544263671E-1
1.798583707E0,-3.448691964E-2,1.316894293E-1,4.350145459E-1,4.558169683E-1
1.801110165E0,-4.513924941E-2,1.306242049E-1,4.424711764E-1,4.635525608E-1
1.803636623E0,-5.259587988E-2,1.252980381E-1,4.509930313E-1,4.710208479E-1
1.806163082E0,-6.111774594E-2,1.210371032E-1,4.563191831E-1,4.760383977E-1
1.808689540E0,-7.177007198E-2,1.178414002E-1,4.637758136E-1,4.838652127E-1
1.811216050E0,-9.094426781E-2,1.146457046E-1,4.722976983E-1,4.944487974E-1
1.813742509E0,-9.840089828E-2,1.114500016E-1,4.808195531E-1,5.032805205E-1
1.816347717E0,-1.058575287E-1,1.061238423E-1,4.882761836E-1,5.107658150E-1
1.818874175E0,-1.133141592E-1,1.018629074E-1,5.021241903E-1,5.247331256E-1
1.821400634E0,-1.229012609E-1,9.121058136E-2,5.138418078E-1,5.361506258E-1
1.823927092E0,-1.335535944E-1,8.268871158E-2,5.266245604E-1,5.495520113E-1
1.826453603E0,-1.335535944E-1,7.523208112E-2,5.383421183E-1,5.597398189E-1
1.828980061E0,-1.388797611E-1,6.244928762E-2,5.479292274E-1,5.686949444E-1
1.831506519E0,-1.399449855E-1,4.966649041E-2,5.617772937E-1,5.810723595E-1
1.834032978E0,-1.367492825E-1,3.688369319E-2,5.766905546E-1,5.938289054E-1
1.836559436E0,-1.314231306E-1,2.410089783E-2,5.884081125E-1,6.033879344E-1
1.839085946E0,-1.239664927E-1,1.025286783E-2,6.022561193E-1,6.149676787E-1
1.841612405E0,-1.207707971E-1,-3.595161485E-3,6.118432283E-1,6.236590789E-1
1.844138863E0,-1.111836955E-1,-2.383458801E-2,6.246260405E-1,6.348917956E-1
1.846747925E0,-1.015966013E-1,-3.555215150E-2,6.374087930E-1,6.464331321E-1
1.849274384E0,-9.200949967E-2,-3.661738336E-2,6.448654532E-1,6.524247340E-1
1.851800842E0,-7.816147059E-2,-4.407401755E-2,6.523220539E-1,6.584647269E-1
1.854327300E0,-6.857437640E-2,-4.407401755E-2,6.597787142E-1,6.647953939E-1
1.856853811E0,-6.537867337E-2,-3.768261895E-2,6.693658233E-1,6.736059353E-1
1.859380269E0,-5.898727849E-2,-4.300878197E-2,6.800181270E-1,6.839253668E-1
1.861906728E0,-4.513924941E-2,-3.235645220E-2,6.864095330E-1,6.886526983E-1
1.864433186E0,-3.768261895E-2,-1.957365684E-2,6.959966421E-1,6.972907813E-1
1.866959644E0,-3.448691964E-2,-1.744319126E-2,7.034532428E-1,7.045140718E-1
1.869486103E0,-3.022598661E-2,-7.856093347E-3,7.087793946E-1,7.094670949E-1
1.872012613E0,-2.063889056E-2,-3.994623839E-4,7.141056061E-1,7.144039054E-1
1.874539071E0,-9.986559860E-3,8.122402243E-3,7.226274610E-1,7.227421062E-1
1.877153707E0,-7.856093347E-3,1.557903271E-2,7.226274610E-1,7.228380675E-1
1.879680165E0,-2.529928461E-3,2.197043039E-2,7.226274610E-1,7.229657998E-1
1.882206623E0,2.796236658E-3,3.262276202E-2,7.290188670E-1,7.297537749E-1
1.884733082E0,9.187635034E-3,4.220985994E-2,7.300840616E-1,7.313609382E-1
1.887259592E0,1.770949923E-2,5.286218971E-2,7.300840616E-1,7.322095154E-1
1.889786050E0,1.238333434E-2,5.925358832E-2,7.279536128E-1,7.304661505E-1
1.892312509E0,8.122402243E-3,7.097115368E-2,7.300840616E-1,7.335704568E-1
1.894838967E0,6.657706108E-4,7.629731297E-2,7.364754677E-1,7.404173402E-1
1.897365425E0,-6.790860556E-3,8.481918275E-2,7.375407219E-1,7.424329774E-1
1.899891936E0,-1.424749196E-2,9.121058136E-2,7.386059761E-1,7.443528391E-1
1.902418394E0,-2.489982173E-2,9.547150880E-2,7.439321280E-1,7.504464146E-1
1.904944853E0,-3.874785081E-2,9.547150880E-2,7.439321280E-1,7.510334320E-1
1.907550269E0,-4.620448127E-2,9.653674066E-2,7.503235340E-1,7.579179389E-1
1.910076728E0,-4.940018058E-2,9.760197252E-2,7.535192370E-1,7.614182579E-1
1.912603186E0,-6.005251035E-2,9.121058136E-2,7.567148805E-1,7.645541737E-1
1.915129644E0,-7.709623873E-2,8.908011019E-2,7.609758377E-1,7.700411168E-1
1.917656155E0,-7.709623873E-2,8.375394344E-2,7.673672438E-1,7.757648096E-1
1.920182613E0,-8.455286920E-2,8.375394344E-2,7.684324980E-1,7.775939909E-1
1.922709071E0,-9.307473898E-2,8.375394344E-2,7.769543529E-1,7.869788412E-1
1.925235530E0,-9.946613014E-2,8.481918275E-2,7.854762077E-1,7.962792712E-1
1.927761988E0,-1.037270650E-1,8.481918275E-2,7.908023596E-1,8.020735438E-1
1.930288498E0,-1.026618332E-1,8.481918275E-2,7.993242145E-1,8.103412525E-1
1.932814957E0,-1.026618332E-1,8.055824786E-2,8.057156205E-1,8.162148886E-1
1.935341415E0,-1.047922969E-1,7.203638554E-2,8.142374754E-1,8.241075977E-1
1.937953238E0,-1.058575287E-1,6.244928762E-2,8.216941357E-1,8.308351115E-1
1.940479696E0,-1.058575287E-1,4.860125855E-2,8.291507363E-1,8.372925667E-1
1.943006155E0,-1.005313694E-1,3.581846133E-2,8.376725912E-1,8.444435378E-1
1.945532613E0,-9.733566642E-2,1.770949923E-2,8.429988027E-1,8.487843304E-1
1.948059123E0,-8.987903595E-2,3.861469682E-3,8.536511064E-1,8.583783335E-1
1.950585582E0,-8.561810106E-2,-1.424749196E-2,8.589772582E-1,8.633512497E-1
1.953112040E0,-7.283531129E-2,-3.129122034E-2,8.664339185E-1,8.700527904E-1
1.955638498E0,-6.218297780E-2,-4.407401755E-2,8.738905191E-1,8.772080034E-1
1.958164957E0,-5.153064802E-2,-5.792204663E-2,8.834776282E-1,8.868726463E-1
1.960691467E0,-3.981308267E-2,-7.390054315E-2,8.930647373E-1,8.970011131E-1
1.963217925E0,-2.276935615E-2,-8.987903595E-2,9.037170410E-1,9.084608824E-1
1.965744384E0,-4.660394508E-3,-1.047922969E-1,9.133041501E-1,9.193082265E-1
1.968352457E0,5.991935730E-3,-1.239664927E-1,9.186303020E-1,9.269763893E-1
1.970878915E0,1.983996481E-2,-1.410102248E-1,9.282174110E-1,9.390767114E-1
1.973405373E0,3.794892505E-2,-1.601844132E-1,9.378045201E-1,9.521431012E-1
1.975931832E0,5.712312087E-2,-1.719019860E-1,9.420654774E-1,9.593230464E-1
1.978458342E0,7.416684926E-2,-1.836195439E-1,9.473916292E-1,9.678676343E-1
1.980984800E0,9.121058136E-2,-1.932066381E-1,9.548482299E-1,9.784596656E-1
1.983511259E0,1.071890742E-1,-1.942718774E-1,9.623048902E-1,9.875534221E-1
1.986037717E0,1.242327988E-1,-1.900109351E-1,9.676310420E-1,9.939053160E-1
1.988564175E0,1.423417628E-1,-1.836195439E-1,9.708267450E-1,9.982393917E-1
1.991090686E0,1.551245600E-1,-1.782933772E-1,9.793485999E-1,1.007460092E0
1.993617144E0,1.668421179E-1,-1.644453406E-1,9.868052602E-1,1.014230341E0
1.996143603E0,1.796249151E-1,-1.527277827E-1,9.921314120E-1,1.019762533E0
1.998750998E0,1.892120093E-1,-1.410102248E-1,9.974575639E-1,1.024991053E0
2.001277457E0,2.051905096E-1,-1.229012609E-1,1.004914165E0,1.032986129E0
2.003803915E0,2.179733068E-1,-1.015966013E-1,1.007044673E0,1.035361389E0
2.006330373E0,2.318213433E-1,-7.283531129E-2,1.011305571E0,1.040088975E0
2.008856884E0,2.446041405E-1,-4.300878197E-2,1.014501333E0,1.044458662E0
2.011383342E0,2.573869228E-1,6.657706108E-4,1.010240316E0,1.042513294E0
2.013909800E0,2.744306624E-1,4.753602296E-2,1.016631722E0,1.054092938E0
2.016436259E0,2.840177417E-1,9.227581322E-2,1.018762231E0,1.061629590E0
2.018962717E0,2.893439233E-1,1.391460598E-1,1.021957874E0,1.071204662E0
2.021489228E0,2.893439233E-1,1.796249151E-1,1.024088383E0,1.079232149E0
2.024015686E0,2.872134447E-1,2.147776037E-1,1.025153637E0,1.086075946E0
2.026542144E0,2.744306624E-1,2.424736619E-1,1.029414535E0,1.092611527E0
2.029172873E0,2.584521770E-1,2.595174015E-1,1.029414535E0,1.092630355E0
2.031699332E0,2.350170314E-1,2.765611112E-1,1.028349280E0,1.090514235E0
2.034225790E0,2.030600458E-1,2.850829959E-1,1.026218891E0,1.084265147E0
2.036752248E0,1.583202630E-1,2.829525173E-1,1.019827485E0,1.070128746E0
2.039278759E0,1.071890742E-1,2.691044807E-1,1.017696977E0,1.058118073E0
2.041805217E0,4.753602296E-2,2.467346042E-1,1.013436079E0,1.044121796E0
2.044331675E0,-2.063889056E-2,2.115819156E-1,1.011305571E0,1.033407871E0
2.046858134E0,-1.005313694E-1,1.668421179E-1,1.010240316E0,1.028848067E0
2.049384592E0,-1.868152469E-1,1.189066395E-1,1.007044673E0,1.031105086E0
2.051911050E0,-2.709686458E-1,6.351451576E-2,1.008109927E0,1.045822034E0
2.054437561E0,-3.625786901E-1,4.926702939E-3,1.007044673E0,1.070339457E0
2.056964019E0,-4.531235099E-1,-5.046541616E-2,1.005979419E0,1.104473750E0
2.059552040E0,-5.394073725E-1,-1.026618332E-1,1.005979419E0,1.146077814E0
2.062078498E0,-6.235607862E-1,-1.484668553E-1,1.001718521E0,1.189247853E0
2.064604957E0,-6.991923451E-1,-1.921414137E-1,1.000653267E0,1.235756942E0
2.067131415E0,-7.652367949E-1,-2.240983993E-1,1.005979419E0,1.283667416E0
2.069657925E0,-8.142374754E-1,-2.507292330E-1,1.005979419E0,1.318272508E0
2.072184384E0,-8.536511064E-1,-2.709686458E-1,1.008109927E0,1.348491692E0
2.074710842E0,-8.866733313E-1,-2.901428342E-1,1.009175181E0,1.374338753E0
2.077237300E0,-9.101084471E-1,-3.071865737E-1,1.011305571E0,1.394775944E0
2.079763759E0,-9.239565134E-1,-3.210346103E-1,1.013436079E0,1.408478451E0
2.082290269E0,-9.218260050E-1,-3.295564651E-1,1.011305571E0,1.407518953E0
2.084816728E0,-9.143694043E-1,-3.327521682E-1,1.009175181E0,1.401866598E0
2.087343186E0,-8.898690343E-1,-3.348826170E-1,1.009175181E0,1.386523643E0
2.089953655E0,-8.611077666E-1,-3.274259865E-1,1.011305571E0,1.368010716E0
2.092480113E0,-8.270202875E-1,-3.199693561E-1,1.008109927E0,1.342620039E0
2.095006571E0,-7.812152505E-1,-3.125127256E-1,1.014501333E0,1.318019130E0
2.097533030E0,-7.311493158E-1,-3.061213493E-1,1.020892739E0,1.292482722E0
2.100059540E0,-6.810833812E-1,-3.039908707E-1,1.024088383E0,1.266902537E0
2.102585998E0,-6.182346344E-1,-2.986647189E-1,1.030479789E0,1.238266237E0
2.105112457E0,-5.564510822E-1,-2.858819067E-1,1.035805941E0,1.210066204E0
2.107638915E0,-4.925371110E-1,-2.709686458E-1,1.040066838E0,1.182267246E0
2.110165373E0,-4.201012850E-1,-2.496639937E-1,1.046458244E0,1.154942447E0
2.112691884E0,-3.497959077E-1,-2.294245660E-1,1.060306311E0,1.139843095E0
2.115218342E0,-2.773600519E-1,-2.070546746E-1,1.070958614E0,1.125501040E0
2.117744800E0,-1.974675655E-1,-1.772281379E-1,1.086937189E0,1.118854640E0
2.120354488E0,-1.165098622E-1,-1.442059278E-1,1.109307051E0,1.124691971E0
2.122880946E0,-3.235645220E-2,-1.090532318E-1,1.128481269E0,1.134199948E0
2.125407405E0,4.753602296E-2,-7.390054315E-2,1.149785876E0,1.153138554E0
2.127933863E0,1.359503716E-1,-2.809552103E-2,1.174286246E0,1.182463551E0
2.130460373E0,2.169080675E-1,1.451379992E-2,1.203047514E0,1.222531423E0
2.132986832E0,2.978657782E-1,6.138405204E-2,1.227547884E0,1.264660362E0
2.135513290E0,3.820191920E-1,1.071890742E-1,1.256309152E0,1.317475178E0
2.138039748E0,4.640421271E-1,1.540593207E-1,1.281874776E0,1.371959296E0
2.140566207E0,5.407389402E-1,1.881467849E-1,1.308505654E0,1.428280386E0
2.143092717E0,6.014571786E-1,2.158428431E-1,1.333006024E0,1.478257059E0
2.145619175E0,6.653711796E-1,2.403431982E-1,1.352180123E0,1.526065118E0
2.148145634E0,7.165023685E-1,2.605826259E-1,1.367093444E0,1.565318956E0
2.150753655E0,7.580464482E-1,2.818872929E-1,1.380941510E0,1.600341938E0
2.153280113E0,7.921339273E-1,2.999962568E-1,1.388398051E0,1.626383430E0
2.155806571E0,8.230256438E-1,3.149095178E-1,1.389463305E0,1.645341148E0
2.158333030E0,8.432651162E-1,3.308880031E-1,1.383071899E0,1.653321144E0
2.160859540E0,8.528521657E-1,3.436708152E-1,1.379876256E0,1.658169149E0
2.163385998E0,8.539174199E-1,3.500621915E-1,1.370289087E0,1.652092818E0
2.165912457E0,8.475260139E-1,3.607145250E-1,1.356441140E0,1.639618211E0
2.168438915E0,8.400694132E-1,3.713668585E-1,1.339397430E0,1.624073717E0
2.170965373E0,8.251561522E-1,3.830844164E-1,1.325549364E0,1.607705652E0
2.173491884E0,7.995905280E-1,3.884105980E-1,1.308505654E0,1.581895968E0
2.176018342E0,7.740249634E-1,3.979976773E-1,1.287200928E0,1.553834941E0
2.178544800E0,7.388722301E-1,4.075847864E-1,1.266961575E0,1.522251346E0
2.181154488E0,7.005238533E-1,4.118457139E-1,1.247787356E0,1.489068114E0
2.183680946E0,6.515231729E-1,4.139761925E-1,1.225417495E0,1.448277173E0
2.186207405E0,6.014571786E-1,4.118457139E-1,1.199851871E0,1.403927399E0
2.188733863E0,5.471302867E-1,4.129109383E-1,1.175351501E0,1.360624174E0
2.191260373E0,4.885424972E-1,3.990629315E-1,1.149785876E0,1.311461992E0
2.193786832E0,4.246285260E-1,3.884105980E-1,1.129546523E0,1.267693782E0
2.196313290E0,3.628450036E-1,3.756277859E-1,1.107176542E0,1.224170179E0
2.198839748E0,2.946700752E-1,3.543231487E-1,1.080545783E0,1.174714662E0
2.201366207E0,2.296908647E-1,3.330184817E-1,1.060306311E0,1.134860641E0
2.203892717E0,1.711030602E-1,3.085181117E-1,1.035805941E0,1.094236551E0
2.206419175E0,1.114500016E-1,2.786915898E-1,1.012370825E0,1.055928403E0
2.208945634E0,5.605788901E-2,2.435389012E-1,9.910661578E-1,1.022088945E0
2.211555061E0,7.057168987E-3,2.019948065E-1,9.729571939E-1,9.937290408E-1
2.214081519E0,-4.513924941E-2,1.615159512E-1,9.527177811E-1,9.673655590E-1
2.216607978E0,-8.881380409E-2,1.135804728E-1,9.346088171E-1,9.456648754E-1
2.219134436E0,-1.218360290E-1,6.564498693E-2,9.196955562E-1,9.300501053E-1
2.221660946E0,-1.623148769E-1,1.131810062E-2,8.983908892E-1,9.130062477E-1
2.224187405E0,-1.889457107E-1,-4.300878197E-2,8.824124336E-1,9.034389520E-1
2.226713863E0,-2.059894353E-1,-9.413997084E-2,8.643034697E-1,8.934844538E-1
2.229240321E0,-2.187722325E-1,-1.399449855E-1,8.472597003E-1,8.861686569E-1
2.231766780E0,-2.294245660E-1,-1.942718774E-1,8.323464394E-1,8.849733267E-1
2.234293290E0,-2.400768995E-1,-2.443378270E-1,8.163679838E-1,8.853217361E-1
2.236819748E0,-2.443378270E-1,-2.805557549E-1,8.003894687E-1,8.826300510E-1
2.239346207E0,-2.443378270E-1,-3.125127256E-1,7.876066566E-1,8.818670097E-1
2.241968707E0,-2.454030514E-1,-3.380783200E-1,7.726933956E-1,8.783932444E-1
2.244495165E0,-2.379464209E-1,-3.604482114E-1,7.599105835E-1,8.740740857E-1
2.247021623E0,-2.326202542E-1,-3.764267266E-1,7.418016195E-1,8.637585924E-1
2.249548082E0,-2.294245660E-1,-3.860138059E-1,7.236927152E-1,8.516885791E-1
2.252074592E0,-2.219679356E-1,-3.924052119E-1,7.109099030E-1,8.418102548E-1
2.254601050E0,-2.155765295E-1,-3.966661394E-1,6.981270909E-1,8.313836066E-1
2.257127509E0,-2.059894353E-1,-3.934704363E-1,6.864095330E-1,8.175626452E-1
2.259653967E0,-1.942718774E-1,-3.860138059E-1,6.757571697E-1,8.021196751E-1
2.262180425E0,-1.836195439E-1,-3.806876540E-1,6.672353148E-1,7.898368137E-1
2.264706936E0,-1.719019860E-1,-3.711005449E-1,6.576482654E-1,7.744463494E-1
2.267233394E0,-1.580539495E-1,-3.604482114E-1,6.523220539E-1,7.618582717E-1
2.269759853E0,-1.410102248E-1,-3.423392773E-1,6.448654532E-1,7.435936505E-1
2.272357353E0,-1.303578913E-1,-3.220998347E-1,6.416697502E-1,7.297133353E-1
2.274883811E0,-1.133141592E-1,-2.986647189E-1,6.384740472E-1,7.139256417E-1
2.277410269E0,-9.627043456E-2,-2.741643488E-1,6.374087930E-1,7.005169920E-1
2.279936728E0,-7.709623873E-2,-2.422073632E-1,6.374087930E-1,6.862202316E-1
2.282463238E0,-6.111774594E-2,-2.049241960E-1,6.374087930E-1,6.723237868E-1
2.284989696E0,-3.874785081E-2,-1.697715074E-1,6.406044960E-1,6.638507972E-1
2.287516155E0,-2.063889056E-2,-1.356840581E-1,6.416697502E-1,6.561830505E-1
2.290042613E0,-7.856093347E-3,-1.015966013E-1,6.438001990E-1,6.518146085E-1
2.292569071E0,1.451379992E-2,-7.070484012E-2,6.469959021E-1,6.510096175E-1
2.295095582E0,3.368799388E-2,-4.194355011E-2,6.544525623E-1,6.566599567E-1
2.297622040E0,5.499265343E-2,-1.318225823E-2,6.629744172E-1,6.653818766E-1
2.300148498E0,8.162347972E-2,1.238333434E-2,6.672353148E-1,6.723233633E-1
2.302756155E0,1.007976755E-1,3.049229458E-2,6.725615263E-1,6.807561664E-1
2.305282613E0,1.167761683E-1,4.966649041E-2,6.778876781E-1,6.896630612E-1
2.307809071E0,1.423417628E-1,6.244928762E-2,6.842790842E-1,7.017114478E-1
2.310335530E0,1.593854874E-1,7.310161740E-2,6.885399818E-1,7.105173373E-1
2.312862040E0,1.732335240E-1,8.162347972E-2,6.885399818E-1,7.146744384E-1
2.315388498E0,1.881467849E-1,9.760197252E-2,6.885399818E-1,7.204253357E-1
2.317914957E0,2.019948065E-1,1.018629074E-1,6.864095330E-1,7.227281652E-1
2.320441415E0,2.094514370E-1,1.082543060E-1,6.842790842E-1,7.237587749E-1
2.322967873E0,2.190385461E-1,1.157109365E-1,6.757571697E-1,7.197323516E-1
2.325494384E0,2.275604010E-1,1.178414002E-1,6.704310179E-1,7.177381705E-1
2.328020842E0,2.296908647E-1,1.242327988E-1,6.587134600E-1,7.085866947E-1
2.330547300E0,2.286256403E-1,1.263632625E-1,6.459306479E-1,6.967522941E-1
2.333149436E0,2.328865677E-1,1.231675670E-1,6.299521923E-1,6.828222079E-1
2.335675894E0,2.328865677E-1,1.189066395E-1,6.171693802E-1,6.702782901E-1
2.338202353E0,2.350170314E-1,1.157109365E-1,6.033213735E-1,6.577375659E-1
2.340728811E0,2.414084375E-1,1.125152409E-1,5.841471553E-1,6.420012556E-1
2.343255321E0,2.382127345E-1,1.071890742E-1,5.692338943E-1,6.263082555E-1
2.345781780E0,2.403431982E-1,1.018629074E-1,5.500596762E-1,6.088567583E-1
2.348308238E0,2.424736619E-1,9.866721183E-2,5.308855176E-1,5.919190217E-1
2.350834696E0,2.477998286E-1,9.121058136E-2,5.149070024E-1,5.786651419E-1
2.353361155E0,2.520607710E-1,8.481918275E-2,5.031894445E-1,5.691472069E-1
2.355887665E0,2.488650680E-1,8.162347972E-2,4.872109592E-1,5.531462133E-1
2.358414123E0,2.531259954E-1,7.629731297E-2,4.691019952E-1,5.384707341E-1
2.360940582E0,2.531259954E-1,7.736254483E-2,4.520582557E-1,5.238457783E-1
2.363557457E0,2.520607710E-1,7.523208112E-2,4.392754734E-1,5.120131246E-1
2.366083915E0,2.488650680E-1,7.416684926E-2,4.243622124E-1,4.975116390E-1
2.368610373E0,2.435389012E-1,7.523208112E-2,4.126446545E-1,4.850223431E-1
2.371136832E0,2.424736619E-1,7.416684926E-2,4.009270668E-1,4.743803444E-1
2.373663342E0,2.350170314E-1,6.990591437E-2,3.870790601E-1,4.582030562E-1
2.376189800E0,2.275604010E-1,6.777545065E-2,3.753614724E-1,4.441547959E-1
2.378716259E0,2.190385461E-1,6.351451576E-2,3.668396175E-1,4.319528717E-1
2.381242717E0,2.073209733E-1,5.712312087E-2,3.540568352E-1,4.142478478E-1
2.383769175E0,1.977338791E-1,4.966649041E-2,3.444697261E-1,4.002809506E-1
2.386295686E0,1.924077123E-1,4.220985994E-2,3.338173926E-1,3.876034722E-1
2.388822144E0,1.806901544E-1,2.729659714E-2,3.231650591E-1,3.712542142E-1
2.391348603E0,1.753639877E-1,1.877473295E-2,3.114475012E-1,3.579169803E-1
2.393957457E0,1.700378209E-1,1.344856713E-2,2.975994647E-1,3.430148187E-1
2.396483915E0,1.689725816E-1,2.796236658E-3,2.869471312E-1,3.330138261E-1
2.399010373E0,1.689725816E-1,-3.595161485E-3,2.741643488E-1,3.220725830E-1
2.401536832E0,1.679073572E-1,-4.660394508E-3,2.645772398E-1,3.133938667E-1
2.404063342E0,1.732335240E-1,-8.921326138E-3,2.539249361E-1,3.075179947E-1
2.406589800E0,1.881467849E-1,-5.725627299E-3,2.432725877E-1,3.075931524E-1
2.409116259E0,1.913424879E-1,-1.464695437E-3,2.326202542E-1,3.012080272E-1
2.411642717E0,1.987991184E-1,6.657706108E-4,2.187722325E-1,2.956058566E-1
2.414169175E0,2.030600458E-1,1.025286783E-2,2.049241960E-1,2.886735693E-1
2.416695686E0,2.115819156E-1,2.090519853E-2,1.964023411E-1,2.894439738E-1
2.419222144E0,2.222342342E-1,3.049229458E-2,1.868152469E-1,2.919208307E-1
2.421748603E0,2.232994735E-1,3.794892505E-2,1.761629134E-1,2.869427606E-1
2.424358498E0,2.211690098E-1,4.966649041E-2,1.665758193E-1,2.813005416E-1
2.426884957E0,2.201037705E-1,6.031882018E-2,1.548582464E-1,2.757990325E-1
2.429411415E0,2.222342342E-1,6.777545065E-2,1.452711523E-1,2.740169233E-1
2.431937873E0,2.190385461E-1,7.736254483E-2,1.356840581E-1,2.690223255E-1
2.434464384E0,2.105166763E-1,8.801487833E-2,1.250317246E-1,2.601861295E-1
2.436990842E0,1.998643428E-1,9.653674066E-2,1.197055578E-1,2.521795360E-1
2.439517300E0,1.934729517E-1,1.061238423E-1,1.079879999E-1,2.456734846E-1
2.442043759E0,1.806901544E-1,1.178414002E-1,9.520520270E-2,2.357955855E-1
2.444570217E0,1.700378209E-1,1.231675670E-1,8.561810106E-2,2.267456049E-1
2.447096728E0,1.583202630E-1,1.295589656E-1,7.496577501E-2,2.178777149E-1
2.449623186E0,1.455374658E-1,1.327546686E-1,6.324820966E-2,2.068943982E-1
2.452149644E0,1.316894293E-1,1.348851323E-1,5.366111174E-2,1.959990296E-1
2.454745113E0,1.221023351E-1,1.327546686E-1,4.194355011E-2,1.851811104E-1
2.457271571E0,1.135804728E-1,1.306242049E-1,2.596505545E-2,1.750353987E-1
2.459798030E0,9.866721183E-2,1.242327988E-1,1.211702544E-2,1.591094884E-1
2.462324488E0,8.908011019E-2,1.199718714E-1,-3.861469682E-3,1.494771785E-1
2.464850998E0,7.842778414E-2,1.146457046E-1,-1.664426550E-2,1.398984864E-1
2.467377457E0,6.777545065E-2,1.071890742E-1,-3.262276202E-2,1.309475236E-1
2.469903915E0,5.499265343E-2,9.973244369E-2,-5.179695413E-2,1.251146543E-1
2.472430373E0,4.647079110E-2,9.973244369E-2,-7.097115368E-2,1.309312774E-1
2.474956832E0,3.794892505E-2,9.440627694E-2,-8.814803511E-2,1.346207344E-1
2.477483290E0,3.049229458E-2,9.014534205E-2,-1.105179265E-1,1.458429800E-1
2.480009800E0,1.451379992E-2,8.694964647E-2,-1.307573467E-1,1.576970993E-1
2.482536259E0,8.122402243E-3,8.268871158E-2,-1.488663107E-1,1.704833567E-1
2.485159123E0,3.861469682E-3,7.949301600E-2,-1.723014414E-1,1.897941971E-1
2.487685582E0,-8.921326138E-3,7.310161740E-2,-1.882799417E-1,2.021701584E-1
2.490212040E0,-1.424749196E-2,7.203638554E-2,-2.053236663E-1,2.180597162E-1
2.492738498E0,-2.063889056E-2,7.416684926E-2,-2.223673910E-1,2.353166843E-1
2.495265009E0,-2.596505545E-2,7.736254483E-2,-2.394111156E-1,2.529364144E-1
2.497791467E0,-3.235645220E-2,7.949301600E-2,-2.596505582E-1,2.734675337E-1
2.500317925E0,-3.768261895E-2,8.055824786E-2,-2.734985650E-1,2.875953339E-1
2.502844384E0,-4.513924941E-2,8.694964647E-2,-2.862813771E-1,3.025802699E-1
2.505370842E0,-4.513924941E-2,8.801487833E-2,-3.011946380E-1,3.170211044E-1
2.507897353E0,-4.407401755E-2,9.227581322E-2,-3.107817471E-1,3.271737139E-1
2.510423811E0,-4.726971686E-2,9.334104508E-2,-3.203688264E-1,3.370210108E-1
2.512950269E0,-5.579157919E-2,9.440627694E-2,-3.246297538E-1,3.426510215E-1
2.515558394E0,-5.792204663E-2,9.653674066E-2,-3.310211599E-1,3.496416938E-1
2.518084853E0,-5.579157919E-2,9.760197252E-2,-3.342168629E-1,3.526184295E-1
2.520611311E0,-6.218297780E-2,1.018629074E-1,-3.395430148E-1,3.599058676E-1
2.523137769E0,-6.537867337E-2,1.018629074E-1,-3.427387178E-1,3.634834955E-1
2.525664280E0,-7.177007198E-2,1.018629074E-1,-3.427387178E-1,3.646872959E-1
2.528190738E0,-7.816147059E-2,1.050586104E-1,-3.448691964E-1,3.688919757E-1
2.530717196E0,-8.348763734E-2,1.050586104E-1,-3.469996452E-1,3.720433456E-1
2.533243655E0,-8.774857223E-2,9.866721183E-2,-3.469996452E-1,3.712731938E-1
2.535770113E0,-9.094426781E-2,1.018629074E-1,-3.501953483E-1,3.758772322E-1
2.538296623E0,-1.005313694E-1,1.050586104E-1,-3.512606025E-1,3.801682242E-1
2.540823082E0,-1.079879999E-1,1.018629074E-1,-3.533910513E-1,3.833049637E-1
2.543349540E0,-1.122489274E-1,9.653674066E-2,-3.576519787E-1,3.870841018E-1
2.545959957E0,-1.143793985E-1,9.653674066E-2,-3.597824574E-1,3.896734604E-1
2.548486415E0,-1.250317246E-1,9.653674066E-2,-3.608476818E-1,3.939077606E-1
2.551012873E0,-1.324883550E-1,8.801487833E-2,-3.651086092E-1,3.982512769E-1
2.553539332E0,-1.346188188E-1,8.375394344E-2,-3.693695366E-1,4.019587093E-1
2.556065842E0,-1.335535944E-1,8.375394344E-2,-3.768261969E-1,4.084718696E-1
2.558592300E0,-1.367492825E-1,8.055824786E-2,-3.821523488E-1,4.137999701E-1
2.561118759E0,-1.378145218E-1,7.629731297E-2,-3.906742036E-1,4.212368167E-1
2.563645217E0,-1.314231306E-1,7.629731297E-2,-3.981308341E-1,4.261472519E-1
2.566171675E0,-1.282274276E-1,7.842778414E-2,-4.055874646E-1,4.325440809E-1
2.568698186E0,-1.207707971E-1,7.736254483E-2,-4.151745737E-1,4.392499009E-1
2.571224644E0,-1.143793985E-1,7.203638554E-2,-4.205007255E-1,4.416930470E-1
2.573751103E0,-1.122489274E-1,6.884068251E-2,-4.258269072E-1,4.457212314E-1
2.576360478E0,-1.005313694E-1,6.351451576E-2,-4.343487620E-1,4.503326515E-1
2.578886936E0,-8.774857223E-2,6.564498693E-2,-4.386096895E-1,4.520923976E-1
2.581413394E0,-8.135717362E-2,6.671021879E-2,-4.418053925E-1,4.541599364E-1
2.583939853E0,-7.283531129E-2,5.818835273E-2,-4.524577260E-1,4.619619690E-1
2.586466363E0,-6.324820966E-2,5.499265343E-2,-4.599143565E-1,4.674887627E-1
2.588992821E0,-5.366111174E-2,4.966649041E-2,-4.726971686E-1,4.783188146E-1
2.591519280E0,-4.407401755E-2,5.286218971E-2,-4.822842479E-1,4.871704280E-1
2.594045738E0,-3.555215150E-2,5.499265343E-2,-4.961322844E-1,5.004352016E-1
2.596572196E0,-2.383458801E-2,5.925358832E-2,-5.078498721E-1,5.118501421E-1
2.599098707E0,-1.744319126E-2,6.031882018E-2,-5.206326246E-1,5.244053345E-1
2.601625165E0,-9.986559860E-3,6.457975507E-2,-5.344806910E-1,5.384606626E-1
2.604151623E0,-3.595161485E-3,6.351451576E-2,-5.493939519E-1,5.530648545E-1
2.606760425E0,-2.529928461E-3,6.351451576E-2,-5.643072128E-1,5.678759765E-1
2.609286884E0,-3.994623839E-4,5.925358832E-2,-5.770899653E-1,5.801241034E-1
2.611813342E0,-1.464695437E-3,4.647079110E-2,-5.888075829E-1,5.906403723E-1
2.614339800E0,-1.464695437E-3,4.114462435E-2,-6.015903354E-1,6.029974768E-1
2.616866311E0,-4.660394508E-3,3.049229458E-2,-6.133078933E-1,6.140831143E-1
2.619392769E0,-4.660394508E-3,1.877473295E-2,-6.196992993E-1,6.200011544E-1
2.621919228E0,-7.856093347E-3,4.926702939E-3,-6.271559596E-1,6.272245119E-1
2.624445686E0,-8.921326138E-3,-5.725627299E-3,-6.399387121E-1,6.400265058E-1
2.626972144E0,-1.318225823E-2,-1.957365684E-2,-6.452649236E-1,6.456963075E-1
2.629498655E0,-1.211702544E-2,-3.129122034E-2,-6.463301182E-1,6.472005751E-1
2.632025113E0,-9.986559860E-3,-4.300878197E-2,-6.484606266E-1,6.499620535E-1
2.634551571E0,-1.211702544E-2,-4.940018058E-2,-6.505910754E-1,6.525763921E-1
2.637163915E0,-1.211702544E-2,-6.218297780E-2,-6.569824815E-1,6.600299433E-1
2.639690373E0,-9.986559860E-3,-7.496577501E-2,-6.601781845E-1,6.644959248E-1
2.642216832E0,-1.318225823E-2,-8.561810106E-2,-6.601781845E-1,6.658374174E-1
2.644743290E0,-1.637795754E-2,-9.520520270E-2,-6.665695906E-1,6.735334343E-1
2.647269800E0,-9.986559860E-3,-1.069227681E-1,-6.697652340E-1,6.783197464E-1
2.649796259E0,-1.318225823E-2,-1.154446304E-1,-6.761566401E-1,6.860678075E-1
2.652322717E0,-1.744319126E-2,-1.197055578E-1,-6.804175973E-1,6.910873984E-1
2.654849175E0,-1.531272475E-2,-1.292926520E-1,-6.857437491E-1,6.979939533E-1
2.657375634E0,-2.276935615E-2,-1.399449855E-1,-6.889394522E-1,7.033780003E-1
2.659902144E0,-2.489982173E-2,-1.505973190E-1,-6.942656040E-1,7.108475804E-1
2.662428603E0,-2.489982173E-2,-1.591191888E-1,-7.017222643E-1,7.199673976E-1
2.664955061E0,-2.276935615E-2,-1.612496525E-1,-7.113093734E-1,7.297129015E-1
2.667563134E0,-2.063889056E-2,-1.655105799E-1,-7.187659740E-1,7.378646497E-1
2.670089592E0,-2.063889056E-2,-1.697715074E-1,-7.294183373E-1,7.491991987E-1
2.672616050E0,-1.531272475E-2,-1.719019860E-1,-7.379401922E-1,7.578525580E-1
2.675142509E0,-8.921326138E-3,-1.719019860E-1,-7.496577501E-1,7.691661883E-1
2.677668967E0,-5.725627299E-3,-1.750976741E-1,-7.656362653E-1,7.854240059E-1
2.680195478E0,-3.994623839E-4,-1.697715074E-1,-7.805495262E-1,7.987991532E-1
2.682721936E0,8.122402243E-3,-1.633801162E-1,-7.965279818E-1,8.131518072E-1
2.685248394E0,2.090519853E-2,-1.527277827E-1,-8.125064969E-1,8.270003691E-1
2.687774853E0,2.410089783E-2,-1.356840581E-1,-8.274197578E-1,8.388173058E-1
2.690301363E0,2.410089783E-2,-1.197055578E-1,-8.433982730E-1,8.521918333E-1
2.692827821E0,2.410089783E-2,-9.733566642E-2,-8.529853225E-1,8.588591535E-1
2.695354280E0,1.770949923E-2,-7.496577501E-2,-8.604419827E-1,8.638830358E-1
2.697963134E0,1.131810062E-2,-5.792204663E-2,-8.678985834E-1,8.699028762E-1
2.700489592E0,2.796236658E-3,-4.620448127E-2,-8.774856925E-1,8.787057605E-1
2.703016050E0,-6.790860556E-3,-3.661738336E-2,-8.838770986E-1,8.846613329E-1
2.705542509E0,-1.850842312E-2,-3.129122034E-2,-8.838770986E-1,8.846244557E-1
2.708069019E0,-2.809552103E-2,-2.596505545E-2,-8.881380558E-1,8.889616125E-1
2.710595478E0,-3.874785081E-2,-2.383458801E-2,-8.945294023E-1,8.956853996E-1
2.713121936E0,-4.940018058E-2,-2.383458801E-2,-9.009208083E-1,9.025889254E-1
2.715648394E0,-6.218297780E-2,-2.916075476E-2,-9.030513167E-1,9.056592919E-1
2.718174853E0,-7.070484012E-2,-3.661738336E-2,-9.062470198E-1,9.097382415E-1
2.720701363E0,-8.029194176E-2,-4.407401755E-2,-9.094427228E-1,9.140434240E-1
2.723227821E0,-9.094426781E-2,-5.579157919E-2,-9.137036204E-1,9.199118796E-1
2.725754280E0,-9.413997084E-2,-7.177007198E-2,-9.168993235E-1,9.245094087E-1
2.728343238E0,-9.946613014E-2,-8.774857223E-2,-9.243559837E-1,9.338240239E-1
2.730869696E0,-1.005313694E-1,-1.047922969E-1,-9.318125844E-1,9.430602707E-1
2.733396155E0,-1.047922969E-1,-1.218360290E-1,-9.371387362E-1,9.508177819E-1
2.735922613E0,-1.058575287E-1,-1.388797611E-1,-9.413996935E-1,9.574585042E-1
2.738449123E0,-1.047922969E-1,-1.548582464E-1,-9.445953965E-1,9.629241741E-1
2.740975582E0,-1.079879999E-1,-1.729672104E-1,-9.541825056E-1,9.757270715E-1
2.743502040E0,-1.122489274E-1,-1.910761744E-1,-9.584434032E-1,9.837294767E-1
2.746028498E0,-1.101184636E-1,-2.102503628E-1,-9.595086575E-1,9.884271115E-1
2.748554957E0,-1.143793985E-1,-2.219679356E-1,-9.659000635E-1,9.976549223E-1
2.751081467E0,-1.101184636E-1,-2.358159572E-1,-9.722914696E-1,1.006521705E0
2.753607925E0,-1.101184636E-1,-2.454030514E-1,-9.786828160E-1,1.014972309E0
2.756134384E0,-1.111836955E-1,-2.549901605E-1,-9.882699251E-1,1.026673873E0
2.758763498E0,-1.218360290E-1,-2.624467909E-1,-9.957265854E-1,1.036915507E0
2.761289957E0,-1.218360290E-1,-2.656424940E-1,-1.003183246E0,1.044885916E0
2.763816415E0,-1.229012609E-1,-2.688381970E-1,-1.012770295E0,1.055027188E0
2.766342873E0,-1.282274276E-1,-2.688381970E-1,-1.019161701E0,1.061794153E0
2.768869384E0,-1.271621883E-1,-2.752295732E-1,-1.028748751E0,1.072495003E0
2.771395842E0,-1.197055578E-1,-2.741643488E-1,-1.035140157E0,1.077502044E0
2.773922300E0,-1.207707971E-1,-2.773600519E-1,-1.042596817E0,1.085597673E0
2.776448759E0,-1.175750941E-1,-2.677729428E-1,-1.051118731E0,1.091043922E0
2.778975217E0,-1.069227681E-1,-2.603163123E-1,-1.054314375E0,1.091226769E0
2.781501728E0,-1.015966013E-1,-2.485987544E-1,-1.059640527E0,1.093142834E0
2.784028186E0,-9.840089828E-2,-2.390116602E-1,-1.063901424E0,1.094849556E0
2.786554644E0,-8.668334037E-2,-2.230331600E-1,-1.064966679E0,1.091518126E0
2.789162717E0,-7.390054315E-2,-2.059894353E-1,-1.064966679E0,1.087219833E0
2.791689175E0,-6.111774594E-2,-1.910761744E-1,-1.060705781E0,1.079510184E0
2.794215634E0,-3.981308267E-2,-1.729672104E-1,-1.060705781E0,1.075453156E0
2.796742092E0,-1.850842312E-2,-1.463363916E-1,-1.056444883E0,1.066692408E0
2.799268603E0,-4.660394508E-3,-1.207707971E-1,-1.057510138E0,1.064394192E0
2.801795061E0,1.238333434E-2,-1.047922969E-1,-1.063901424E0,1.069121608E0
2.804321519E0,2.729659714E-2,-9.733566642E-2,-1.069227695E0,1.073995904E0
2.806847978E0,3.901416063E-2,-9.520520270E-2,-1.076684237E0,1.081589146E0
2.809374436E0,4.966649041E-2,-9.733566642E-2,-1.080945253E0,1.086454616E0
2.811900946E0,5.392742157E-2,-1.090532318E-1,-1.085206151E0,1.092004196E0
2.814427405E0,5.499265343E-2,-1.324883550E-1,-1.087336659E0,1.096758117E0
2.816953863E0,4.966649041E-2,-1.516625583E-1,-1.085206151E0,1.096877697E0
2.819539384E0,4.753602296E-2,-1.644453406E-1,-1.080945253E0,1.094415179E0
2.822065842E0,4.220985994E-2,-1.793586165E-1,-1.079879999E0,1.095487105E0
2.824592300E0,3.155753016E-2,-1.974675655E-1,-1.078814745E0,1.097192130E0
2.827118759E0,1.025286783E-2,-2.209026963E-1,-1.077749491E0,1.100203203E0
2.829645217E0,-1.105179265E-2,-2.358159572E-1,-1.084140897E0,1.109546210E0
2.832171728E0,-3.235645220E-2,-2.496639937E-1,-1.088401794E0,1.117138092E0
2.834698186E0,-6.644391268E-2,-2.624467909E-1,-1.094793200E0,1.127770040E0
2.837224644E0,-1.015966013E-1,-2.730991244E-1,-1.103315115E0,1.141143831E0
2.839751103E0,-1.314231306E-1,-2.848166823E-1,-1.109706521E0,1.153187385E0
2.842277561E0,-1.697715074E-1,-2.869471312E-1,-1.119293571E0,1.167895166E0
2.844804071E0,-2.070546746E-1,-2.837514579E-1,-1.129945874E0,1.183285345E0
2.847330530E0,-2.422073632E-1,-2.784252763E-1,-1.141663551E0,1.199825281E0
2.849991675E0,-2.720338702E-1,-2.741643488E-1,-1.145924449E0,1.209260666E0
2.852518134E0,-3.071865737E-1,-2.677729428E-1,-1.156576753E0,1.226269026E0
2.855044592E0,-3.423392773E-1,-2.613815665E-1,-1.164033413E0,1.241164893E0
2.857571050E0,-3.721657991E-1,-2.592510879E-1,-1.168294311E0,1.253247823E0
2.860097561E0,-3.966661394E-1,-2.560553849E-1,-1.178946614E0,1.269969884E0
2.862624019E0,-4.169055820E-1,-2.507292330E-1,-1.182142377E0,1.278333294E0
2.865150478E0,-4.339492917E-1,-2.464682907E-1,-1.186403275E0,1.287094144E0
2.867676936E0,-4.499278069E-1,-2.454030514E-1,-1.190664172E0,1.296278851E0
2.870203394E0,-4.616453648E-1,-2.411421239E-1,-1.195990324E0,1.304476455E0
2.872729853E0,-4.712324440E-1,-2.400768995E-1,-1.198120832E0,1.309652803E0
2.875256363E0,-4.872109592E-1,-2.315550297E-1,-1.199186087E0,1.314929474E0
2.877782821E0,-4.925371110E-1,-2.240983993E-1,-1.200251341E0,1.316592640E0
2.880366103E0,-4.946675897E-1,-2.145113051E-1,-1.190664172E0,1.307054817E0
2.882892561E0,-5.010589957E-1,-1.995980442E-1,-1.187468529E0,1.304216624E0
2.885419019E0,-4.989285171E-1,-1.814890802E-1,-1.183207631E0,1.296860922E0
2.887945478E0,-4.861457348E-1,-1.623148769E-1,-1.174685717E0,1.281627999E0
2.890471988E0,-4.797543287E-1,-1.431406885E-1,-1.168294311E0,1.271048807E0
2.892998446E0,-4.659062922E-1,-1.239664927E-1,-1.162968159E0,1.258940548E0
2.895524905E0,-4.467321038E-1,-1.047922969E-1,-1.155511498E0,1.243285092E0
2.898051363E0,-4.318188429E-1,-8.668334037E-2,-1.151250601E0,1.232623000E0
2.900577821E0,-4.083836973E-1,-7.390054315E-2,-1.144859195E0,1.217760695E0
2.903104280E0,-3.796224296E-1,-5.259587988E-2,-1.137402534E0,1.200234994E0
2.905630790E0,-3.540568352E-1,-3.555215150E-2,-1.131011128E0,1.185667057E0
2.908157248E0,-3.274259865E-1,-1.211702544E-2,-1.123554587E0,1.170354438E0
2.910790165E0,-2.922733128E-1,5.991935730E-3,-1.119293571E0,1.156839526E0
2.913316623E0,-2.581858635E-1,2.090519853E-2,-1.109706521E0,1.139537419E0
2.915843082E0,-2.177069932E-1,3.688369319E-2,-1.103315115E0,1.125193754E0
2.918369540E0,-1.750976741E-1,5.392742157E-2,-1.099054217E0,1.114220595E0
2.920896050E0,-1.303578913E-1,6.244928762E-2,-1.091597557E0,1.101125933E0
2.923422509E0,-9.094426781E-2,6.990591437E-2,-1.086271405E0,1.092310973E0
2.925948967E0,-4.407401755E-2,7.629731297E-2,-1.083075643E0,1.086653876E0
2.928475425E0,3.861469682E-3,7.736254483E-2,-1.075619102E0,1.078404528E0
2.931001884E0,4.327509180E-2,8.268871158E-2,-1.072423339E0,1.076476648E0
2.933552821E0,8.481918275E-2,9.334104508E-2,-1.071358085E0,1.078756224E0
2.936079280E0,1.231675670E-1,9.866721183E-2,-1.066031933E0,1.077650013E0
2.938605790E0,1.551245600E-1,1.018629074E-1,-1.066031933E0,1.082064583E0
2.941132248E0,1.828206182E-1,1.093195379E-1,-1.064966679E0,1.086060848E0
2.943658707E0,2.094514370E-1,1.114500016E-1,-1.060705781E0,1.086916630E0
2.946185165E0,2.307561040E-1,1.125152409E-1,-1.055379629E0,1.086155707E0
2.948711623E0,2.499302924E-1,1.146457046E-1,-1.053249121E0,1.088550641E0
2.951238134E0,2.701697350E-1,1.242327988E-1,-1.054314375E0,1.095447066E0
2.953764592E0,2.850829959E-1,1.295589656E-1,-1.054314375E0,1.099834825E0
2.956291050E0,2.968005538E-1,1.380808353E-1,-1.056444883E0,1.105998498E0
2.958817509E0,3.074528873E-1,1.466026902E-1,-1.052183867E0,1.105943270E0
2.961433394E0,3.106485903E-1,1.519288570E-1,-1.047922969E0,1.103506898E0
2.963959853E0,3.149095178E-1,1.583202630E-1,-1.045792580E0,1.103592058E0
2.966486311E0,3.127790391E-1,1.657768935E-1,-1.041531563E0,1.100045773E0
2.969012769E0,3.127790391E-1,1.785596907E-1,-1.035140157E0,1.096006129E0
2.971539280E0,3.085181117E-1,1.892120093E-1,-1.030879259E0,1.092564257E0
2.974065738E0,2.999962568E-1,1.977338791E-1,-1.023422599E0,1.084661356E0
2.976592196E0,2.946700752E-1,2.083862126E-1,-1.014900804E0,1.077162433E0
2.979118655E0,2.829525173E-1,2.201037705E-1,-1.007444143E0,1.069322916E0
2.981645113E0,2.744306624E-1,2.318213433E-1,-1.003183246E0,1.065565553E0
2.984171623E0,2.637783289E-1,2.382127345E-1,-9.967917800E-1,1.058261861E0
2.986698082E0,2.552564740E-1,2.424736619E-1,-9.935960770E-1,1.054126420E0
2.989224540E0,2.392779738E-1,2.488650680E-1,-9.893351793E-1,1.047841528E0
2.991834436E0,2.296908647E-1,2.520607710E-1,-9.850742221E-1,1.042431652E0
2.994360894E0,2.179733068E-1,2.488650680E-1,-9.818785191E-1,1.036113705E0
2.996887353E0,2.115819156E-1,2.467346042E-1,-9.829437733E-1,1.035289010E0
2.999413811E0,2.094514370E-1,2.392779738E-1,-9.808133245E-1,1.031076443E0
3.001940321E0,2.041252851E-1,2.286256403E-1,-9.808133245E-1,1.027585321E0
3.004466780E0,2.030600458E-1,2.137123793E-1,-9.872047305E-1,1.030281293E0
3.006993238E0,2.115819156E-1,1.913424879E-1,-9.946613312E-1,1.034760851E0
3.009519696E0,2.137123793E-1,1.711030602E-1,-1.004248381E0,1.040895791E0
3.012046155E0,2.190385461E-1,1.466026902E-1,-1.015965939E0,1.049598505E0
3.014572665E0,2.328865677E-1,1.221023351E-1,-1.035140157E0,1.068016984E0
3.017099123E0,2.371474952E-1,9.866721183E-2,-1.060705781E0,1.091361950E0
3.019625582E0,2.435389012E-1,7.949301600E-2,-1.082010388E0,1.111924825E0
3.022234748E0,2.477998286E-1,6.351451576E-2,-1.106510758E0,1.135695781E0
3.024761207E0,2.424736619E-1,5.392742157E-2,-1.131011128E0,1.157967105E0
3.027287665E0,2.360822707E-1,4.540555924E-2,-1.157642007E0,1.182341541E0
3.029814123E0,2.275604010E-1,4.007939249E-2,-1.183207631E0,1.205558125E0
3.032340582E0,2.041252851E-1,4.220985994E-2,-1.210903645E0,1.228713327E0
3.034867092E0,1.838858575E-1,5.073172227E-2,-1.235404015E0,1.250044317E0
3.037393550E0,1.625811905E-1,4.647079110E-2,-1.258839130E0,1.270144926E0
3.039920009E0,1.306242049E-1,5.073172227E-2,-1.284404755E0,1.292026302E0
3.042446467E0,9.760197252E-2,6.351451576E-2,-1.314231277E0,1.319380190E0
3.044972978E0,6.671021879E-2,7.629731297E-2,-1.342992544E0,1.346811237E0
3.047499436E0,3.581846133E-2,8.375394344E-2,-1.370688558E0,1.373712054E0
3.050025894E0,1.731003635E-3,8.908011019E-2,-1.398384690E0,1.401220184E0
3.052634800E0,-3.448691964E-2,9.014534205E-2,-1.423950195E0,1.427217464E0
3.055161259E0,-7.603100687E-2,9.334104508E-2,-1.446320176E0,1.451321920E0
3.057687717E0,-1.122489274E-1,9.121058136E-2,-1.459102988E0,1.466253976E0
3.060214175E0,-1.537930220E-1,8.268871158E-2,-1.474016190E0,1.484322554E0
3.062740686E0,-1.900109351E-1,7.736254483E-2,-1.487864256E0,1.501941797E0
3.065267144E0,-2.198374718E-1,7.097115368E-2,-1.496386051E0,1.514112490E0
3.067793603E0,-2.560553849E-1,5.605788901E-2,-1.502777457E0,1.525466136E0
3.070320061E0,-2.880123854E-1,3.901416063E-2,-1.511299372E0,1.538992862E0
3.072846519E0,-3.178389072E-1,1.664426550E-2,-1.520886421E0,1.553832072E0
3.075373030E0,-3.444697261E-1,-4.660394508E-3,-1.528343081E0,1.566688765E0
3.077899488E0,-3.583177626E-1,-2.489982173E-2,-1.536864996E0,1.578279328E0
3.080425946E0,-3.753614724E-1,-4.407401755E-2,-1.543256402E0,1.588860937E0
3.083037925E0,-3.860138059E-1,-5.685681105E-2,-1.548582554E0,1.596980677E0
3.085564384E0,-3.881442845E-1,-6.218297780E-2,-1.552843451E0,1.601825675E0
3.088090842E0,-3.860138059E-1,-6.005251035E-2,-1.557104349E0,1.605361927E0
3.090617300E0,-3.785571754E-1,-6.005251035E-2,-1.554973960E0,1.601516736E0
3.093143811E0,-3.742962480E-1,-4.940018058E-2,-1.548582554E0,1.593940396E0
3.095670269E0,-3.625786901E-1,-3.874785081E-2,-1.542191148E0,1.584713930E0
3.098196728E0,-3.540568352E-1,-2.276935615E-2,-1.535799742E0,1.576247294E0
3.100723186E0,-3.434045017E-1,-7.856093347E-3,-1.524082184E0,1.562310748E0
3.103249644E0,-3.284912407E-1,1.131810062E-2,-1.512364626E0,1.547669654E0
3.105776155E0,-3.114475012E-1,2.729659714E-2,-1.498516560E0,1.530782979E0
3.108302613E0,-2.922733128E-1,4.327509180E-2,-1.483603239E0,1.512737583E0
3.110829071E0,-2.699034214E-1,6.138405204E-2,-1.471885681E0,1.497685987E0
3.113437665E0,-2.475335300E-1,8.162347972E-2,-1.459102988E0,1.482199977E0
3.115964123E0,-2.283593267E-1,1.018629074E-1,-1.446320176E0,1.467775898E0
3.118490582E0,-2.006632686E-1,1.221023351E-1,-1.429276466E0,1.448449497E0
3.121017040E0,-1.719019860E-1,1.402112991E-1,-1.413297892E0,1.430601423E0
3.123543550E0,-1.505973190E-1,1.519288570E-1,-1.396254182E0,1.412546520E0
3.126070009E0,-1.271621883E-1,1.636464298E-1,-1.376014709E0,1.391533994E0
3.128596467E0,-1.005313694E-1,1.774944514E-1,-1.356840611E0,1.372088656E0
3.131122925E0,-7.603100687E-2,1.913424879E-1,-1.336601138E0,1.352366542E0
3.133649384E0,-6.005251035E-2,1.987991184E-1,-1.321687818E0,1.337903614E0
3.136175894E0,-3.874785081E-2,2.073209733E-1,-1.305709362E0,1.322633857E0
3.138702353E0,-2.916075476E-2,2.179733068E-1,-1.288665652E0,1.307295634E0
3.141228811E0,-1.957365684E-2,2.232994735E-1,-1.271621943E0,1.291227380E0
3.143837925E0,-9.986559860E-3,2.286256403E-1,-1.258839130E0,1.279470739E0
3.146364384E0,-4.660394508E-3,2.296908647E-1,-1.249252081E0,1.270200919E0
3.148890842E0,1.731003635E-3,2.360822707E-1,-1.233273506E0,1.255667701E0
3.151417300E0,3.861469682E-3,2.360822707E-1,-1.224751711E0,1.247303693E0
3.153943811E0,-3.994623839E-4,2.328865677E-1,-1.217295051E0,1.239372242E0
3.156470269E0,3.861469682E-3,2.371474952E-1,-1.209838390E0,1.232867704E0
3.158996728E0,6.657706108E-4,2.350170314E-1,-1.201316595E0,1.224089462E0
3.161523186E0,-2.529928461E-3,2.318213433E-1,-1.192794681E0,1.215115915E0
3.164049644E0,-2.529928461E-3,2.275604010E-1,-1.182142377E0,1.203848303E0
3.166576103E0,-3.595161485E-3,2.232994735E-1,-1.171490073E0,1.192587343E0
3.169102613E0,-8.921326138E-3,2.147776037E-1,-1.162968159E0,1.182668148E0
3.171629071E0,-1.424749196E-2,2.051905096E-1,-1.157642007E0,1.175772577E0
3.174238759E0,-1.105179265E-2,1.977338791E-1,-1.153381109E0,1.170260147E0
3.176765217E0,-5.725627299E-3,1.860163212E-1,-1.146989703E0,1.161989774E0
3.179291675E0,-7.856093347E-3,1.774944514E-1,-1.141663551E0,1.155405411E0
3.181818134E0,-2.529928461E-3,1.689725816E-1,-1.135272145E0,1.147780893E0
3.184344644E0,3.861469682E-3,1.604507267E-1,-1.135272145E0,1.146561028E0
3.186871103E0,5.991935730E-3,1.466026902E-1,-1.132076383E0,1.141545088E0
3.189397561E0,1.025286783E-2,1.338198930E-1,-1.126750231E0,1.134715369E0
3.191924019E0,9.187635034E-3,1.167761683E-1,-1.120358825E0,1.126465704E0
3.194450478E0,1.557903271E-2,1.039933711E-1,-1.119293571E0,1.124222142E0
3.196976988E0,1.877473295E-2,9.547150880E-2,-1.112902164E0,1.117147496E0
3.199503446E0,2.197043039E-2,8.801487833E-2,-1.115032673E0,1.118716756E0
3.202029905E0,2.729659714E-2,8.162347972E-2,-1.117163181E0,1.120473592E0
3.204641623E0,2.623136342E-2,7.629731297E-2,-1.123554587E0,1.126447635E0
3.207168082E0,2.410089783E-2,7.629731297E-2,-1.126750231E0,1.129587631E0
3.209694540E0,2.516612969E-2,8.162347972E-2,-1.133141637E0,1.136356324E0
3.212220998E0,1.664426550E-2,8.375394344E-2,-1.138467789E0,1.141665739E0
3.214747509E0,1.238333434E-2,8.588441461E-2,-1.139533043E0,1.142832024E0
3.217273967E0,3.861469682E-3,8.908011019E-2,-1.146989703E0,1.150450154E0
3.219800425E0,6.657706108E-4,9.014534205E-2,-1.146989703E0,1.150526838E0
3.222326884E0,-7.856093347E-3,9.653674066E-2,-1.151250601E0,1.155317708E0
3.224853342E0,-1.424749196E-2,1.029281393E-1,-1.157642007E0,1.162296093E0
3.227379800E0,-1.744319126E-2,1.061238423E-1,-1.161902905E0,1.166869699E0
3.229906311E0,-2.276935615E-2,1.135804728E-1,-1.159772396E0,1.165543212E0
3.232432769E0,-2.916075476E-2,1.231675670E-1,-1.161902905E0,1.168776693E0
3.235039540E0,-3.129122034E-2,1.284937263E-1,-1.159772396E0,1.167288220E0
3.237565998E0,-3.661738336E-2,1.284937263E-1,-1.159772396E0,1.167443138E0
3.240092457E0,-3.661738336E-2,1.327546686E-1,-1.157642007E0,1.165804294E0
3.242618915E0,-3.342168778E-2,1.338198930E-1,-1.150185347E0,1.158426133E0
3.245145425E0,-3.129122034E-2,1.327546686E-1,-1.141663551E0,1.149781982E0
3.247671884E0,-3.022598661E-2,1.327546686E-1,-1.135272145E0,1.143407301E0
3.250198342E0,-2.809552103E-2,1.370155960E-1,-1.124619722E0,1.133283791E0
3.252724800E0,-1.957365684E-2,1.348851323E-1,-1.110771775E0,1.119102794E0
3.255251259E0,-1.424749196E-2,1.316894293E-1,-1.094793200E0,1.102777062E0
3.257777769E0,-8.921326138E-3,1.316894293E-1,-1.078814745E0,1.086859213E0
3.260304228E0,-2.529928461E-3,1.242327988E-1,-1.069227695E0,1.076423733E0
3.262830686E0,2.796236658E-3,1.231675670E-1,-1.054314375E0,1.061488045E0
3.265440061E0,1.344856713E-2,1.135804728E-1,-1.035140157E0,1.041439644E0
3.267966519E0,2.197043039E-2,1.071890742E-1,-1.023422599E0,1.029255077E0
3.270492978E0,2.516612969E-2,9.973244369E-2,-1.008509398E0,1.013741140E0
3.273019436E0,3.368799388E-2,9.440627694E-2,-9.882699251E-1,9.933402594E-1
3.275545946E0,3.794892505E-2,9.334104508E-2,-9.712262154E-1,9.764389551E-1
3.278072405E0,4.540555924E-2,9.547150880E-2,-9.520519972E-1,9.579036899E-1
3.280598863E0,5.179695413E-2,9.760197252E-2,-9.371387362E-1,9.436302668E-1
3.283125321E0,5.712312087E-2,9.653674066E-2,-9.200950265E-1,9.269073584E-1
3.285651780E0,6.244928762E-2,9.973244369E-2,-9.083774686E-1,9.159673025E-1
3.288178290E0,6.457975507E-2,1.050586104E-1,-8.955946565E-1,9.040451566E-1
3.290704748E0,6.777545065E-2,1.061238423E-1,-8.849423528E-1,8.938561122E-1
3.293231207E0,6.884068251E-2,1.061238423E-1,-8.785509467E-1,8.876108806E-1
3.295842144E0,7.629731297E-2,1.093195379E-1,-8.678985834E-1,8.780774410E-1
3.298368603E0,7.949301600E-2,1.167761683E-1,-8.593767285E-1,8.709099693E-1
3.300895061E0,8.055824786E-2,1.167761683E-1,-8.561810255E-1,8.678549725E-1
3.303421519E0,8.801487833E-2,1.178414002E-1,-8.529853225E-1,8.655733214E-1
3.305948030E0,9.334104508E-2,1.242327988E-1,-8.465939164E-1,8.607366603E-1
3.308474488E0,9.547150880E-2,1.231675670E-1,-8.380720615E-1,8.524375865E-1
3.311000946E0,1.039933711E-1,1.231675670E-1,-8.306154609E-1,8.461128262E-1
3.313527405E0,1.039933711E-1,1.221023351E-1,-8.231588006E-1,8.386381893E-1
3.316053863E0,1.093195379E-1,1.199718714E-1,-8.167673945E-1,8.327382470E-1
3.318580373E0,1.167761683E-1,1.178414002E-1,-8.082455397E-1,8.250964316E-1
3.321106832E0,1.210371032E-1,1.103847697E-1,-8.007889390E-1,8.173724381E-1
3.323633290E0,1.221023351E-1,1.018629074E-1,-7.933322787E-1,8.091113252E-1
3.326242144E0,1.284937263E-1,9.547150880E-2,-7.858756781E-1,8.020137331E-1
3.328768603E0,1.263632625E-1,8.268871158E-2,-7.773538232E-1,7.918863956E-1
3.331295061E0,1.252980381E-1,6.990591437E-2,-7.656362653E-1,7.789642649E-1
3.333821519E0,1.231675670E-1,6.138405204E-2,-7.581796050E-1,7.705676900E-1
3.336348030E0,1.263632625E-1,5.712312087E-2,-7.517881989E-1,7.644712036E-1
3.338874488E0,1.242327988E-1,5.605788901E-2,-7.400706410E-1,7.525163314E-1
3.341400946E0,1.210371032E-1,4.860125855E-2,-7.294183373E-1,7.409879713E-1
3.343927405E0,1.146457046E-1,4.434032366E-2,-7.230269313E-1,7.334014216E-1
3.346453863E0,1.103847697E-1,4.434032366E-2,-7.177007794E-1,7.274924539E-1
3.348980373E0,1.050586104E-1,4.753602296E-2,-7.123745680E-1,7.216470815E-1
3.351506832E0,1.029281393E-1,5.073172227E-2,-7.113093734E-1,7.205060265E-1
3.354033290E0,9.866721183E-2,4.966649041E-2,-7.081136703E-1,7.166777163E-1
3.356641936E0,9.547150880E-2,6.031882018E-2,-7.102441192E-1,7.191660989E-1
3.359168394E0,9.334104508E-2,6.884068251E-2,-7.102441192E-1,7.196515122E-1
3.361694853E0,9.547150880E-2,6.564498693E-2,-7.166355252E-1,7.259411473E-1
3.364221311E0,9.653674066E-2,6.884068251E-2,-7.198312283E-1,7.295309308E-1
3.366747821E0,9.440627694E-2,6.990591437E-2,-7.251573801E-1,7.346105144E-1
3.369274280E0,9.653674066E-2,6.990591437E-2,-7.304835320E-1,7.401434791E-1
3.371800738E0,9.973244369E-2,7.629731297E-2,-7.379401922E-1,7.485476388E-1
3.374327196E0,9.547150880E-2,7.629731297E-2,-7.464620471E-1,7.564004738E-1
3.376853655E0,9.547150880E-2,8.055824786E-2,-7.517881989E-1,7.620957528E-1
3.379380165E0,9.334104508E-2,8.694964647E-2,-7.635057569E-1,7.740890339E-1
3.381906623E0,9.440627694E-2,9.014534205E-2,-7.720276117E-1,7.829849048E-1
3.384433082E0,9.973244369E-2,1.007976755E-1,-7.784190178E-1,7.912287273E-1
3.387042769E0,1.050586104E-1,1.114500016E-1,-7.880061269E-1,8.027528078E-1
3.389569228E0,1.082543060E-1,1.157109365E-1,-7.954627872E-1,8.110912781E-1
3.392095686E0,1.125152409E-1,1.252980381E-1,-8.050498366E-1,8.224746302E-1
3.394622144E0,1.082543060E-1,1.316894293E-1,-8.135717511E-1,8.312400945E-1
3.397148655E0,1.093195379E-1,1.316894293E-1,-8.199630976E-1,8.376349733E-1
3.399675113E0,1.103847697E-1,1.359503716E-1,-8.220936060E-1,8.405386356E-1
3.402201571E0,1.093195379E-1,1.284937263E-1,-8.231588006E-1,8.402688915E-1
3.404728030E0,1.039933711E-1,1.316894293E-1,-8.178326488E-1,8.348694319E-1
3.407254488E0,9.760197252E-2,1.306242049E-1,-8.146369457E-1,8.307961129E-1
3.409780946E0,8.801487833E-2,1.306242049E-1,-8.061150908E-1,8.213591428E-1
3.412307457E0,7.949301600E-2,1.316894293E-1,-7.997236848E-1,8.143827217E-1
3.414833915E0,6.990591437E-2,1.295589656E-1,-7.890713811E-1,8.026867427E-1
3.417442769E0,5.286218971E-2,1.242327988E-1,-7.784190178E-1,7.900407373E-1
3.419969228E0,4.966649041E-2,1.221023351E-1,-7.677667141E-1,7.790003002E-1
3.422495686E0,3.901416063E-2,1.114500016E-1,-7.496577501E-1,7.589004875E-1
3.425022144E0,2.303566411E-2,1.029281393E-1,-7.304835320E-1,7.380589639E-1
3.427548655E0,1.451379992E-2,9.973244369E-2,-7.155702710E-1,7.226327030E-1
3.430075113E0,9.187635034E-3,9.866721183E-2,-6.953308582E-1,7.023564862E-1
3.432601571E0,5.991935730E-3,9.547150880E-2,-6.697652340E-1,6.765620304E-1
3.435128030E0,-1.464695437E-3,9.121058136E-2,-6.484606266E-1,6.548455541E-1
3.437654488E0,-7.856093347E-3,8.694964647E-2,-6.314168572E-1,6.374238832E-1
3.440180998E0,-1.105179265E-2,7.949301600E-2,-6.101121902E-1,6.153683177E-1
3.442707457E0,-1.531272475E-2,7.736254483E-2,-5.920032263E-1,5.972330055E-1
3.445233915E0,-1.531272475E-2,7.736254483E-2,-5.792204738E-1,5.845646244E-1
3.447844332E0,-1.464695437E-3,8.055824786E-2,-5.643072128E-1,5.700301809E-1
3.450370790E0,4.926702939E-3,9.440627694E-2,-5.461982489E-1,5.543188113E-1
3.452897248E0,1.238333434E-2,1.125152409E-1,-5.323501825E-1,5.442515441E-1
3.455423707E0,2.729659714E-2,1.338198930E-1,-5.174369216E-1,5.351577672E-1
3.457950217E0,3.794892505E-2,1.551245600E-1,-4.993279874E-1,5.242443982E-1
3.460476675E0,4.434032366E-2,1.753639877E-1,-4.812190235E-1,5.140917632E-1
3.463003134E0,5.605788901E-2,1.987991184E-1,-4.673709869E-1,5.109786843E-1
3.465529592E0,6.777545065E-2,2.307561040E-1,-4.545882046E-1,5.142881751E-1
3.468056050E0,7.736254483E-2,2.712349594E-1,-4.471315742E-1,5.286586906E-1
3.470582561E0,9.334104508E-2,3.159747422E-1,-4.407401681E-1,5.502767342E-1
3.473109019E0,1.082543060E-1,3.660407066E-1,-4.322183132E-1,5.766432727E-1
3.475635478E0,1.199718714E-1,4.150414169E-1,-4.279573560E-1,6.081119356E-1
3.478250998E0,1.327546686E-1,4.661726058E-1,-4.258269072E-1,6.451893174E-1
3.480777457E0,1.466026902E-1,5.162385702E-1,-4.226312041E-1,6.830898512E-1
3.483303915E0,1.466026902E-1,5.599130988E-1,-4.194355011E-1,7.147874975E-1
3.485830373E0,1.466026902E-1,6.003919840E-1,-4.194355011E-1,7.469196897E-1
3.488356884E0,1.423417628E-1,6.323489547E-1,-4.162397981E-1,7.703128893E-1
3.490883342E0,1.348851323E-1,6.525883675E-1,-4.130440950E-1,7.840095667E-1
3.493409800E0,1.242327988E-1,6.653711796E-1,-4.077179432E-1,7.901813185E-1
3.495936259E0,1.114500016E-1,6.770887375E-1,-4.023917615E-1,7.954806038E-1
3.498462717E0,9.334104508E-2,6.781539917E-1,-4.002613127E-1,7.929782504E-1
3.500989228E0,7.097115368E-2,6.781539917E-1,-3.970656097E-1,7.890442570E-1
3.503515686E0,4.966649041E-2,6.685668826E-1,-3.896089792E-1,7.753989899E-1
3.506042144E0,2.836182900E-2,6.600450277E-1,-3.842828274E-1,7.642886388E-1
3.508649800E0,4.926702939E-3,6.376751065E-1,-3.810871243E-1,7.428870777E-1
3.511176259E0,-2.596505545E-2,6.067833900E-1,-3.693695366E-1,7.108404330E-1
3.513702717E0,-5.792204663E-2,5.705654621E-1,-3.576519787E-1,6.758807942E-1
3.516229175E0,-9.413997084E-2,5.268908739E-1,-3.469996452E-1,6.378754431E-1
3.518755686E0,-1.367492825E-1,4.789553881E-1,-3.352820873E-1,6.004271047E-1
3.521282144E0,-1.750976741E-1,4.235632718E-1,-3.203688264E-1,5.591969471E-1
3.523808603E0,-2.187722325E-1,3.671059310E-1,-3.139774203E-1,5.302922542E-1
3.526335061E0,-2.560553849E-1,3.095833361E-1,-3.065207899E-1,5.053327584E-1
3.528861519E0,-2.912080884E-1,2.488650680E-1,-3.043903410E-1,4.892744143E-1
3.531388030E0,-3.263607621E-1,1.870815456E-1,-3.001294136E-1,4.812364457E-1
3.533914436E0,-3.583177626E-1,1.316894293E-1,-2.969337106E-1,4.836355583E-1
3.536440946E0,-3.785571754E-1,8.268871158E-2,-2.958684862E-1,4.875255062E-1
3.539045373E0,-3.966661394E-1,3.262276202E-2,-2.937380075E-1,4.946617913E-1
3.541571832E0,-4.073184729E-1,-1.105179265E-2,-2.916075289E-1,5.010642986E-1
3.544098290E0,-4.147751033E-1,-5.579157919E-2,-2.905423045E-1,5.094761205E-1
3.546624748E0,-4.126446545E-1,-9.840089828E-2,-2.905423045E-1,5.141723236E-1
3.549151259E0,-4.126446545E-1,-1.431406885E-1,-2.926727831E-1,5.257587142E-1
3.551677717E0,-4.030575454E-1,-1.868152469E-1,-2.979989350E-1,5.349380213E-1
3.554204175E0,-3.892095089E-1,-2.209026963E-1,-3.086512685E-1,5.436429422E-1
3.556730634E0,-3.721657991E-1,-2.485987544E-1,-3.246297538E-1,5.528952883E-1
3.559257092E0,-3.455349505E-1,-2.826862037E-1,-3.427387178E-1,5.628283224E-1
3.561783603E0,-3.135779798E-1,-3.039908707E-1,-3.608476818E-1,5.665268293E-1
3.564310061E0,-2.816209793E-1,-3.210346103E-1,-3.800218701E-1,5.716556820E-1
3.566836519E0,-2.464682907E-1,-3.338173926E-1,-4.013265371E-1,5.772726040E-1
3.569446155E0,-2.091851383E-1,-3.412740231E-1,-4.183702767E-1,5.790164672E-1
3.571972613E0,-1.687062830E-1,-3.423392773E-1,-4.332835376E-1,5.774016060E-1
3.574499071E0,-1.250317246E-1,-3.348826170E-1,-4.460663199E-1,5.716244056E-1
3.577025530E0,-8.774857223E-2,-3.263607621E-1,-4.556534290E-1,5.673016890E-1
3.579551988E0,-4.833494872E-2,-3.114475012E-1,-4.684362113E-1,5.645956937E-1
3.582078498E0,-7.856093347E-3,-2.858819067E-1,-4.737623930E-1,5.533904479E-1
3.584604957E0,3.581846133E-2,-2.475335300E-1,-4.737623930E-1,5.357299839E-1
3.587131415E0,8.162347972E-2,-2.102503628E-1,-4.748276174E-1,5.256699285E-1
3.589657873E0,1.284937263E-1,-1.729672104E-1,-4.758928418E-1,5.224005077E-1
3.592184384E0,1.753639877E-1,-1.271621883E-1,-4.705666900E-1,5.180306555E-1
3.594710842E0,2.211690098E-1,-8.348763734E-2,-4.620448351E-1,5.190099673E-1
3.597237300E0,2.691044807E-1,-3.342168778E-2,-4.513925016E-1,5.265827772E-1
3.599846155E0,3.138442934E-1,1.131810062E-2,-4.418053925E-1,5.420501312E-1
3.602372613E0,3.575188220E-1,5.286218971E-2,-4.226312041E-1,5.560856533E-1
3.604899071E0,3.948020041E-1,9.227581322E-2,-4.034570158E-1,5.719799050E-1
3.607425530E0,4.256937504E-1,1.284937263E-1,-3.853480518E-1,5.884037116E-1
3.609952040E0,4.565854967E-1,1.593854874E-1,-3.693695366E-1,6.085292959E-1
3.612478498E0,4.757596850E-1,1.892120093E-1,-3.512606025E-1,6.209126132E-1
3.615004957E0,4.949339032E-1,2.158428431E-1,-3.320863843E-1,6.338998881E-1
3.617531415E0,5.098471642E-1,2.371474952E-1,-3.171731234E-1,6.455864430E-1
3.620057873E0,5.151733160E-1,2.563216984E-1,-2.990641594E-1,6.484934310E-1
3.622584384E0,5.204994678E-1,2.765611112E-1,-2.841508985E-1,6.543297925E-1
3.625110842E0,5.151733160E-1,2.904091477E-1,-2.713681161E-1,6.506778566E-1
3.627637300E0,5.055862069E-1,2.946700752E-1,-2.607157826E-1,6.406407614E-1
3.630248498E0,4.949339032E-1,3.010614812E-1,-2.479329854E-1,6.301335964E-1
3.632774957E0,4.746944606E-1,2.999962568E-1,-2.383458912E-1,6.100338916E-1
3.635301415E0,4.587159753E-1,2.914743721E-1,-2.287587970E-1,5.896679089E-1
3.637827873E0,4.342156053E-1,2.786915898E-1,-2.213021666E-1,5.614150363E-1
3.640354384E0,4.086500108E-1,2.648435533E-1,-2.138455361E-1,5.318522844E-1
3.642880842E0,3.830844164E-1,2.467346042E-1,-2.117150575E-1,5.024489035E-1
3.645407300E0,3.543231487E-1,2.243647128E-1,-2.074541301E-1,4.678906220E-1
3.647933759E0,3.223661482E-1,2.009295821E-1,-2.042584270E-1,4.312935607E-1
3.650460217E0,2.914743721E-1,1.679073572E-1,-1.968017966E-1,3.897193059E-1
3.652986728E0,2.627131045E-1,1.306242049E-1,-1.893451661E-1,3.491882731E-1
3.655513186E0,2.328865677E-1,8.694964647E-2,-1.808233112E-1,3.073978925E-1
3.658039644E0,2.073209733E-1,3.901416063E-2,-1.744319052E-1,2.737345068E-1
3.660651623E0,1.870815456E-1,-1.211702544E-2,-1.659100503E-1,2.503447059E-1
3.663178082E0,1.689725816E-1,-6.750914454E-2,-1.659100503E-1,2.462424876E-1
3.665704540E0,1.583202630E-1,-1.154446304E-1,-1.605838835E-1,2.533376246E-1
3.668230998E0,1.508636326E-1,-1.708367467E-1,-1.541924775E-1,2.751733086E-1
3.670757509E0,1.497983932E-1,-2.283593267E-1,-1.552577168E-1,3.141536238E-1
3.673283967E0,1.540593207E-1,-2.794905007E-1,-1.573881805E-1,3.558373977E-1
3.675810425E0,1.604507267E-1,-3.316869438E-1,-1.563229412E-1,4.002468317E-1
3.678336884E0,1.657768935E-1,-3.796224296E-1,-1.595186442E-1,4.438934166E-1
3.680863342E0,1.828206182E-1,-4.286231399E-1,-1.584534049E-1,4.921876227E-1
3.683389853E0,1.966686398E-1,-4.754934013E-1,-1.648448110E-1,5.403205902E-1
3.685916311E0,2.062557489E-1,-5.127765536E-1,-1.680405140E-1,5.776840332E-1
3.688442769E0,2.211690098E-1,-5.457987785E-1,-1.712362021E-1,6.132975415E-1
3.691048811E0,2.414084375E-1,-5.724295974E-1,-1.733666807E-1,6.449881267E-1
3.693575269E0,2.488650680E-1,-5.990604162E-1,-1.765623689E-1,6.722956749E-1
3.696101728E0,2.595174015E-1,-6.171693802E-1,-1.786928326E-1,6.929490991E-1
3.698628186E0,2.733654380E-1,-6.331478953E-1,-1.797580719E-1,7.126835795E-1
3.701154696E0,2.818872929E-1,-6.427350044E-1,-1.786928326E-1,7.242236258E-1
3.703681155E0,2.893439233E-1,-6.491263509E-1,-1.765623689E-1,7.322972043E-1
3.706207613E0,3.021267056E-1,-6.512568593E-1,-1.744319052E-1,7.388115677E-1
3.708734071E0,3.042571843E-1,-6.491263509E-1,-1.723014414E-1,7.373094603E-1
3.711260530E0,3.127790391E-1,-6.469959021E-1,-1.701709777E-1,7.385069981E-1
3.713787040E0,3.213009238E-1,-6.406044960E-1,-1.669752747E-1,7.358594610E-1
3.716313498E0,3.287575543E-1,-6.310173869E-1,-1.616491079E-1,7.296539633E-1
3.718839957E0,3.340837061E-1,-6.214303374E-1,-1.552577168E-1,7.224213076E-1
3.721448759E0,3.394098580E-1,-6.107779741E-1,-1.509967744E-1,7.148767805E-1
3.723975217E0,3.458012640E-1,-5.979951620E-1,-1.456706226E-1,7.059721370E-1
3.726501675E0,3.458012640E-1,-5.788210034E-1,-1.403444558E-1,6.887008309E-1
3.729028134E0,3.447360396E-1,-5.649729371E-1,-1.296921223E-1,6.744311702E-1
3.731554644E0,3.458012640E-1,-5.457987785E-1,-1.254311949E-1,6.581852365E-1
3.734081103E0,3.458012640E-1,-5.212984085E-1,-1.179745570E-1,6.365913454E-1
3.736607561E0,3.436708152E-1,-4.978632927E-1,-1.126483902E-1,6.153593643E-1
3.739134019E0,3.436708152E-1,-4.691019952E-1,-1.073222235E-1,5.913411628E-1
3.741660478E0,3.340837061E-1,-4.424711764E-1,-1.009308323E-1,5.635420992E-1
3.744186988E0,3.255618513E-1,-4.179708064E-1,-9.773512930E-2,5.387413753E-1
3.746713446E0,3.191704452E-1,-3.956009150E-1,-9.453943372E-2,5.170179509E-1
3.749239905E0,3.085181117E-1,-3.753614724E-1,-9.240896255E-2,4.945898064E-1
3.751852925E0,2.989310026E-1,-3.551220596E-1,-8.814803511E-2,4.724843888E-1
3.754379384E0,2.925396264E-1,-3.391435742E-1,-8.814803511E-2,4.564732994E-1
3.756905842E0,2.861482203E-1,-3.199693561E-1,-9.453943372E-2,4.395439652E-1
3.759432300E0,2.765611112E-1,-2.997299433E-1,-9.240896255E-2,4.181668369E-1
3.761958811E0,2.659088075E-1,-2.837514579E-1,-9.666989744E-2,4.007086883E-1
3.764485269E0,2.573869228E-1,-2.613815665E-1,-1.009308323E-1,3.804673235E-1
3.767011728E0,2.435389012E-1,-2.432725877E-1,-1.083874628E-1,3.608886122E-1
3.769538186E0,2.286256403E-1,-2.315550297E-1,-1.126483902E-1,3.443502215E-1
3.772064644E0,2.158428431E-1,-2.219679356E-1,-1.158440933E-1,3.305718549E-1
3.774591155E0,2.019948065E-1,-2.113156021E-1,-1.254311949E-1,3.181024524E-1
3.777117613E0,1.892120093E-1,-2.027937323E-1,-1.328878254E-1,3.075478117E-1
3.779644071E0,1.700378209E-1,-1.985328048E-1,-1.371487528E-1,2.951913202E-1
3.782249332E0,1.593854874E-1,-2.017285079E-1,-1.424749196E-1,2.939340525E-1
3.784775790E0,1.529940963E-1,-2.113156021E-1,-1.478010863E-1,2.998443568E-1
3.787302248E0,1.444722265E-1,-2.145113051E-1,-1.520620137E-1,3.000169666E-1
3.789828707E0,1.370155960E-1,-2.251636237E-1,-1.541924775E-1,3.053641287E-1
3.792355217E0,1.338198930E-1,-2.379464209E-1,-1.595186442E-1,3.161842198E-1
3.794881675E0,1.306242049E-1,-2.528596818E-1,-1.659100503E-1,3.294341306E-1
3.797408134E0,1.295589656E-1,-2.709686458E-1,-1.712362021E-1,3.457330900E-1
3.799934592E0,1.338198930E-1,-2.880123854E-1,-1.776276082E-1,3.638824880E-1
3.802461050E0,1.370155960E-1,-3.082517982E-1,-1.882799417E-1,3.863182381E-1
3.804987561E0,1.444722265E-1,-3.242303133E-1,-1.925408691E-1,4.038186556E-1
3.807514019E0,1.497983932E-1,-3.434045017E-1,-1.978670359E-1,4.236951431E-1
3.810040478E0,1.593854874E-1,-3.604482114E-1,-2.063889056E-1,4.448854090E-1
3.812654800E0,1.657768935E-1,-3.732310236E-1,-2.138455361E-1,4.609916362E-1
3.815181259E0,1.721682847E-1,-3.881442845E-1,-2.191716880E-1,4.778432092E-1
3.817707717E0,1.785596907E-1,-4.019923210E-1,-2.223673910E-1,4.928779219E-1
3.820234175E0,1.806901544E-1,-4.211665094E-1,-2.255630940E-1,5.107923942E-1
3.822760686E0,1.828206182E-1,-4.350145459E-1,-2.276935577E-1,5.239326195E-1
3.825287144E0,1.817553788E-1,-4.488625526E-1,-2.298240215E-1,5.360332916E-1
3.827813603E0,1.785596907E-1,-4.637758136E-1,-2.415415943E-1,5.525521787E-1
3.830340061E0,1.711030602E-1,-4.744281471E-1,-2.458025217E-1,5.610500901E-1
3.832866519E0,1.636464298E-1,-4.818847775E-1,-2.479329854E-1,5.660952730E-1
3.835393030E0,1.540593207E-1,-4.872109592E-1,-2.479329854E-1,5.679608774E-1
3.837919488E0,1.476679295E-1,-4.936023653E-1,-2.543243766E-1,5.745694048E-1
3.840445946E0,1.412765235E-1,-4.936023653E-1,-2.607157826E-1,5.758255555E-1
3.843060998E0,1.338198930E-1,-4.914718866E-1,-2.639114857E-1,5.736738197E-1
3.845587457E0,1.295589656E-1,-4.893414080E-1,-2.703028917E-1,5.738503223E-1
3.848113915E0,1.231675670E-1,-4.808195531E-1,-2.798899710E-1,5.698211018E-1
3.850640373E0,1.135804728E-1,-4.765586257E-1,-2.862813771E-1,5.674201921E-1
3.853166884E0,1.146457046E-1,-4.616453648E-1,-2.926727831E-1,5.584956924E-1
3.855693342E0,1.135804728E-1,-4.467321038E-1,-3.001294136E-1,5.500434176E-1
3.858219800E0,1.103847697E-1,-4.328840673E-1,-3.075860441E-1,5.423860135E-1
3.860746259E0,1.039933711E-1,-4.179708064E-1,-3.171731234E-1,5.348953228E-1
3.863272717E0,9.440627694E-2,-3.987966180E-1,-3.299559355E-1,5.261389617E-1
3.865799228E0,8.588441461E-2,-3.774919510E-1,-3.384777904E-1,5.142407221E-1
3.868325686E0,8.268871158E-2,-3.625786901E-1,-3.491301239E-1,5.100907497E-1
3.870852144E0,8.162347972E-2,-3.497959077E-1,-3.576519787E-1,5.068870756E-1
3.873451415E0,7.523208112E-2,-3.359478712E-1,-3.629781604E-1,5.002739081E-1
3.875977873E0,7.203638554E-2,-3.242303133E-1,-3.715000153E-1,4.983239892E-1
3.878504332E0,7.416684926E-2,-3.125127256E-1,-3.789566457E-1,4.967625837E-1
3.881030790E0,6.990591437E-2,-3.039908707E-1,-3.853480518E-1,4.957725359E-1
3.883557300E0,7.203638554E-2,-2.901428342E-1,-3.928046823E-1,4.936270085E-1
3.886083759E0,7.736254483E-2,-2.826862037E-1,-3.991960883E-1,4.952312289E-1
3.888610217E0,8.162347972E-2,-2.826862037E-1,-4.077179432E-1,5.027999636E-1
3.891136675E0,8.055824786E-2,-2.752295732E-1,-4.098483920E-1,5.002166068E-1
3.893663134E0,8.162347972E-2,-2.699034214E-1,-4.151745737E-1,5.018766541E-1
3.896189644E0,8.694964647E-2,-2.656424940E-1,-4.194355011E-1,5.040360257E-1
3.898716103E0,8.588441461E-2,-2.709686458E-1,-4.194355011E-1,5.066816350E-1
3.901242561E0,8.908011019E-2,-2.720338702E-1,-4.173050225E-1,5.060446367E-1
3.903850842E0,9.014534205E-2,-2.762948275E-1,-4.162397981E-1,5.076618795E-1
3.906377300E0,9.121058136E-2,-2.816209793E-1,-4.141093493E-1,5.090346739E-1
3.908903759E0,8.481918275E-2,-2.816209793E-1,-4.109136462E-1,5.053263247E-1
3.911430217E0,8.588441461E-2,-2.848166823E-1,-4.098483920E-1,5.064310216E-1
3.913956728E0,8.908011019E-2,-2.880123854E-1,-4.034570158E-1,5.036506366E-1
3.916483186E0,8.908011019E-2,-2.890776098E-1,-4.023917615E-1,5.034086414E-1
3.919009644E0,8.908011019E-2,-2.933385372E-1,-4.002613127E-1,5.041744558E-1
3.921536103E0,8.481918275E-2,-2.975994647E-1,-3.970656097E-1,5.034092108E-1
3.924062561E0,8.162347972E-2,-3.007951677E-1,-3.970656097E-1,5.047783907E-1
3.926589071E0,7.842778414E-2,-3.029256463E-1,-3.938699067E-1,5.030391316E-1
3.929115530E0,6.564498693E-2,-3.050560951E-1,-3.917394578E-1,5.008276034E-1
3.931641988E0,5.605788901E-2,-3.061213493E-1,-3.928046823E-1,5.011469703E-1
3.934240634E0,4.540555924E-2,-3.061213493E-1,-3.928046823E-1,5.000674592E-1
3.936767092E0,3.794892505E-2,-3.018604219E-1,-3.949351311E-1,4.985314363E-1
3.939293550E0,2.836182900E-2,-3.029256463E-1,-4.002613127E-1,5.027697873E-1
3.941820009E0,1.877473295E-2,-3.071865737E-1,-4.077179432E-1,5.108326564E-1
3.944346519E0,5.991935730E-3,-3.061213493E-1,-4.141093493E-1,5.150075115E-1
3.946872978E0,-7.856093347E-3,-3.039908707E-1,-4.194355011E-1,5.180717202E-1
3.949399436E0,-1.531272475E-2,-3.039908707E-1,-4.268921316E-1,5.242917327E-1
3.951925894E0,-2.170412242E-2,-3.029256463E-1,-4.364792407E-1,5.317416136E-1
3.954452353E0,-2.596505545E-2,-3.039908707E-1,-4.418053925E-1,5.369139954E-1
3.956978863E0,-3.022598661E-2,-3.050560951E-1,-4.513925016E-1,5.456445931E-1
3.959505321E0,-3.768261895E-2,-3.007951677E-1,-4.588491321E-1,5.499456688E-1
3.962031780E0,-4.620448127E-2,-3.082517982E-1,-4.695014656E-1,5.635473816E-1
3.964658811E0,-4.726971686E-2,-3.061213493E-1,-4.822842479E-1,5.731865337E-1
3.967185269E0,-4.620448127E-2,-3.061213493E-1,-4.971975088E-1,5.857051284E-1
3.969711728E0,-4.620448127E-2,-3.050560951E-1,-5.142412186E-1,5.996983459E-1
3.972238186E0,-4.726971686E-2,-3.061213493E-1,-5.323501825E-1,6.159069926E-1
3.974764696E0,-4.620448127E-2,-2.975994647E-1,-5.461982489E-1,6.237249574E-1
3.977291155E0,-4.300878197E-2,-2.901428342E-1,-5.611115098E-1,6.331498606E-1
3.979817613E0,-4.513924941E-2,-2.794905007E-1,-5.781552196E-1,6.437514658E-1
3.982344071E0,-5.579157919E-2,-2.699034214E-1,-5.877423286E-1,6.491545287E-1
3.984870530E0,-5.685681105E-2,-2.592510879E-1,-5.994598866E-1,6.555882695E-1
3.987396988E0,-6.111774594E-2,-2.475335300E-1,-6.079817414E-1,6.592799294E-1
3.989923498E0,-6.644391268E-2,-2.240983993E-1,-6.122426987E-1,6.553441906E-1
3.992449957E0,-7.603100687E-2,-2.027937323E-1,-6.175688505E-1,6.544442658E-1
3.995053082E0,-8.348763734E-2,-1.825543046E-1,-6.218297482E-1,6.534282634E-1
3.997579540E0,-8.881380409E-2,-1.569887102E-1,-6.228950024E-1,6.484840252E-1
4.000105998E0,-9.413997084E-2,-1.303578913E-1,-6.239602566E-1,6.443461149E-1
4.002632457E0,-1.058575287E-1,-1.090532318E-1,-6.218297482E-1,6.401333138E-1
4.005158967E0,-1.186403260E-1,-8.881380409E-2,-6.154384017E-1,6.330306825E-1
4.007685425E0,-1.260969639E-1,-6.644391268E-2,-6.154384017E-1,6.317275236E-1
4.010211884E0,-1.367492825E-1,-4.194355011E-2,-6.111774445E-1,6.276921987E-1
4.012738342E0,-1.537930220E-1,-2.170412242E-2,-5.994598866E-1,6.192540013E-1
4.015264800E0,-1.644453406E-1,-4.660394508E-3,-5.973294377E-1,6.195695655E-1
4.017791259E0,-1.740324497E-1,1.664426550E-2,-5.909380317E-1,6.162565070E-1
4.020317769E0,-1.878804713E-1,3.368799388E-2,-5.856118798E-1,6.159344334E-1
4.022844228E0,-1.964023411E-1,5.073172227E-2,-5.792204738E-1,6.137132429E-1
4.025476207E0,-2.059894353E-1,6.457975507E-2,-5.738942623E-1,6.131531754E-1
4.028002665E0,-2.145113051E-1,7.842778414E-2,-5.685681105E-1,6.127280911E-1
4.030529123E0,-2.219679356E-1,8.801487833E-2,-5.675029159E-1,6.156914347E-1
4.033055582E0,-2.358159572E-1,1.007976755E-1,-5.696333647E-1,6.247011343E-1
4.035582040E0,-2.475335300E-1,1.029281393E-1,-5.643072128E-1,6.247476937E-1
4.038108550E0,-2.549901605E-1,1.061238423E-1,-5.643072128E-1,6.282713445E-1
4.040635009E0,-2.592510879E-1,1.050586104E-1,-5.685681105E-1,6.336545861E-1
4.043161467E0,-2.688381970E-1,1.029281393E-1,-5.728290677E-1,6.410938456E-1
4.045687925E0,-2.784252763E-1,9.653674066E-2,-5.770899653E-1,6.479759292E-1
4.048214436E0,-2.837514579E-1,9.014534205E-2,-5.792204738E-1,6.512583434E-1
4.050740894E0,-2.794905007E-1,7.523208112E-2,-5.856118798E-1,6.532350877E-1
4.053267353E0,-2.794905007E-1,5.605788901E-2,-5.951989293E-1,6.599387792E-1
4.055857978E0,-2.773600519E-1,3.581846133E-2,-6.026555896E-1,6.643834135E-1
4.058384436E0,-2.773600519E-1,9.187635034E-3,-6.090469956E-1,6.692916060E-1
4.060910894E0,-2.688381970E-1,-2.703028731E-2,-6.111774445E-1,6.682383416E-1
4.063437353E0,-2.603163123E-1,-6.111774594E-2,-6.165035963E-1,6.719945279E-1
4.065963863E0,-2.549901605E-1,-1.026618332E-1,-6.186341047E-1,6.769546436E-1
4.068490321E0,-2.432725877E-1,-1.474016160E-1,-6.250254512E-1,6.867063440E-1
4.071016780E0,-2.283593267E-1,-1.910761744E-1,-6.303516626E-1,6.971379384E-1
4.073543238E0,-2.145113051E-1,-2.390116602E-1,-6.346125603E-1,7.112487437E-1
4.076069696E0,-1.974675655E-1,-2.869471312E-1,-6.378082633E-1,7.267265485E-1
4.078596207E0,-1.750976741E-1,-3.370130956E-1,-6.463301182E-1,7.496530156E-1
4.081122665E0,-1.505973190E-1,-3.838833570E-1,-6.463301182E-1,7.666737285E-1
4.083649123E0,-1.324883550E-1,-4.307536185E-1,-6.495258212E-1,7.905603307E-1
