"Time (s)","Linear Acceleration x (m/s^2)","Linear Acceleration y (m/s^2)","Linear Acceleration z (m/s^2)"
5.671729800E-2,2.162694931E-3,8.315406740E-3,6.981277466E-2
6.191000700E-2,-8.634626865E-3,-1.998338848E-2,1.078033447E-2
6.695136100E-2,-2.149242163E-2,-8.192051202E-3,3.939342499E-2
7.199266300E-2,1.519842446E-2,-3.212974593E-2,1.497364044E-2
7.703401700E-2,-2.431695163E-2,4.511669278E-3,1.143360138E-2
8.207537100E-2,1.618470252E-2,-2.193488181E-4,4.341983795E-2
8.711667300E-2,2.849981189E-3,-1.343217492E-2,-1.962184906E-2
9.232323600E-2,-1.183687150E-2,9.809352458E-3,2.960395813E-2
9.736453800E-2,2.318352461E-3,-8.668899536E-3,-3.050136566E-2
1.024058920E-1,-3.148877621E-2,-1.043223962E-2,3.204154968E-2
1.074471940E-1,1.324968040E-2,4.873134196E-3,3.353881836E-2
1.124886000E-1,1.034928858E-2,1.014939323E-2,7.921218872E-3
1.175299020E-1,-2.080683410E-2,-6.840452552E-4,1.431274414E-2
1.227031320E-1,-4.024770856E-2,5.103804171E-3,1.473522186E-2
1.277444860E-1,-2.223740518E-2,-1.786529645E-2,5.966281891E-2
1.327858400E-1,1.873870194E-2,-1.057546586E-3,-1.164722443E-2
1.378271420E-1,-2.748250961E-3,2.465058118E-3,1.521015167E-2
1.428684960E-1,-2.314522862E-2,4.672110081E-3,1.113414764E-2
1.479098500E-1,-7.297143340E-3,1.247386262E-2,2.103614807E-2
1.531344340E-1,2.174963057E-2,3.945995122E-3,2.828884125E-2
1.581757880E-1,-1.478497684E-2,-7.596101612E-3,7.143020630E-4
1.632171420E-1,-1.577511430E-3,-3.921397030E-3,4.153251648E-3
1.682584440E-1,2.976894379E-3,2.750179544E-2,-1.102542877E-2
1.732997980E-1,1.224127412E-2,-4.688240588E-3,1.365852356E-2
1.783411000E-1,7.134079933E-3,4.699990153E-3,5.030727386E-2
1.835315170E-1,3.014357388E-2,-2.550978214E-3,-4.639625549E-3
1.885728710E-1,3.706067801E-4,-1.058951393E-2,1.989459991E-2
1.936142250E-1,6.146669388E-3,3.277477250E-2,2.860927582E-2
1.986555270E-1,9.563043714E-3,-2.016909420E-3,-1.991081238E-2
2.036968820E-1,-4.650741816E-3,-6.630454212E-3,2.766609192E-3
2.087382360E-1,1.865556836E-2,-7.551960647E-3,-5.557727814E-2
2.139286520E-1,-1.679587364E-2,-1.555457711E-2,-3.968238831E-3
2.189700070E-1,1.114755869E-3,1.167451963E-2,1.130580902E-2
2.240113610E-1,8.043035865E-3,-1.784935966E-2,-2.992630005E-3
2.290526630E-1,-1.425372064E-2,-1.054095477E-2,5.261421204E-3
2.340940170E-1,1.399518549E-2,6.167709827E-3,-1.240539551E-2
2.391353190E-1,1.486556232E-2,-2.050507814E-3,5.433082581E-3
2.443251630E-1,-5.837827921E-4,1.416247338E-3,-2.980518341E-2
2.493665170E-1,-1.639962196E-3,-1.621929184E-2,3.761291504E-2
2.544078710E-1,-2.154846489E-2,3.887262195E-3,3.986358643E-3
2.594491730E-1,-1.520296931E-2,3.919873387E-3,3.672599792E-2
2.644905270E-1,-1.613499224E-2,1.428820193E-3,6.639480591E-3
2.695318290E-1,6.563887000E-3,-3.280486912E-3,1.811027527E-3
2.747228190E-1,-5.226567388E-3,-2.105083317E-3,2.877235413E-2
2.797641730E-1,-1.575499773E-3,9.538907558E-3,1.411628723E-2
2.848055270E-1,1.962500811E-2,5.641054362E-3,2.089118958E-2
2.898468290E-1,-4.171177745E-3,7.719412446E-3,-3.825950623E-2
2.948881840E-1,1.014044881E-2,-8.790228516E-3,-1.873970032E-2
2.999294860E-1,1.703768969E-2,-5.140256137E-3,7.472991943E-3
3.051204750E-1,1.330673695E-4,1.726334170E-2,6.161689758E-3
3.101618290E-1,-6.929486990E-3,-1.364623010E-2,1.899623871E-2
3.152031840E-1,1.437757909E-2,-6.359901279E-3,5.045032501E-2
3.202444860E-1,-5.908548832E-3,-1.212448627E-2,2.498626709E-3
3.252858400E-1,-3.059436381E-2,1.272187382E-2,1.423358917E-2
3.303271420E-1,-6.530731916E-3,-2.053633332E-2,-3.194618225E-2
3.355183400E-1,5.412220955E-3,6.858922541E-3,-1.257610321E-2
3.405596940E-1,-5.159676075E-4,-2.717241645E-3,8.841514587E-3
3.456010480E-1,4.259675741E-3,-8.684679866E-3,1.695632935E-2
3.506423500E-1,6.051808596E-4,1.394627616E-2,2.259254456E-2
3.556837040E-1,6.570905447E-3,-8.663121611E-3,-1.313686371E-2
3.607250070E-1,2.419640124E-2,1.505191997E-2,8.296966553E-3
3.659173500E-1,2.648234367E-4,-1.001751423E-2,2.823734283E-2
3.709587040E-1,-6.872713566E-3,2.432152256E-2,-3.591346741E-2
3.760000590E-1,-7.685422897E-4,1.215592772E-2,-5.884170532E-3
3.810413610E-1,-1.374730468E-2,-1.626493782E-2,2.372169495E-2
3.860827150E-1,1.117016375E-2,1.664958894E-3,1.039886475E-2
3.911240170E-1,-1.261027157E-2,-3.170050681E-3,-5.102157593E-3
3.962763090E-1,7.698848844E-3,2.997112274E-2,2.923297882E-2
4.013176630E-1,6.491526961E-3,-2.347789705E-3,3.475379944E-2
4.063589650E-1,-4.386484623E-3,-1.409576088E-2,-9.439468384E-3
4.114003190E-1,2.789273858E-3,-3.130283207E-3,1.905632019E-2
4.164416730E-1,2.056609094E-2,-1.836908981E-2,-4.833221436E-3
4.214829750E-1,4.984334111E-3,-3.133792058E-2,-2.842330933E-2
4.266958920E-1,3.811942041E-2,8.019633591E-3,1.569461823E-2
4.317372460E-1,3.317445517E-3,2.339039743E-2,-1.407337189E-2
4.367785480E-1,1.752626896E-2,1.720298454E-2,-3.046417236E-2
4.418199020E-1,3.161714971E-2,-7.735241205E-3,-1.826286316E-2
4.468612570E-1,-3.145845234E-2,-1.354532689E-2,3.258705139E-3
4.519025590E-1,1.985995471E-2,5.437869579E-3,-9.800910950E-3
4.571050070E-1,7.414966822E-4,-3.152215108E-2,3.056335449E-2
4.621463610E-1,-1.455585659E-2,-1.648996025E-3,3.021335602E-2
4.671877150E-1,-1.323196292E-2,6.724018604E-3,3.934288025E-2
4.722290170E-1,1.186414063E-2,2.208340541E-2,-2.548217773E-3
4.772703710E-1,-6.136804819E-3,-1.837413758E-3,2.827453613E-2
4.823116730E-1,-2.464115620E-3,3.612922132E-2,-1.586437225E-2
4.875032360E-1,3.618285060E-3,-1.519040018E-2,2.340507507E-2
4.925445380E-1,1.413983107E-2,-1.859285310E-2,-6.215858459E-2
4.975858920E-1,2.088010311E-3,-1.482619345E-2,-2.239418030E-2
5.026271940E-1,1.517885923E-2,-4.090774804E-3,1.813697815E-2
5.076685480E-1,5.616128445E-3,1.005994901E-2,1.439189911E-2
5.127098500E-1,1.156218350E-2,-2.672440186E-2,-7.091522217E-3
5.178854230E-1,-4.185160995E-2,-1.566659659E-3,-3.902721405E-2
5.229267770E-1,-9.313642979E-3,-2.618748695E-3,3.487968445E-2
5.279680790E-1,3.874272108E-3,-1.567294449E-2,3.808975220E-2
5.330094340E-1,-1.163198054E-2,-4.161905870E-2,2.822399139E-2
5.380507360E-1,2.171619236E-2,8.536618203E-3,-1.702308655E-3
5.430920900E-1,3.688171506E-3,-2.476961538E-2,2.678108215E-2
5.482624020E-1,-4.650145769E-3,-4.458718002E-3,-3.132820129E-3
5.533037570E-1,1.299962401E-3,3.240008652E-2,1.469230652E-2
5.583450590E-1,-1.059100032E-3,-3.536853939E-3,2.285861969E-2
5.633864130E-1,5.012840033E-3,-2.363570780E-2,-2.956104279E-2
5.684277670E-1,-3.314509988E-3,-1.034913585E-2,-1.267528534E-2
5.734690690E-1,-9.139969945E-3,2.518081665E-2,1.117610931E-2
5.786688090E-1,4.052162170E-3,-2.250851318E-2,1.581192017E-3
5.837101110E-1,1.005339622E-2,-1.282103732E-2,2.293205261E-2
5.887514650E-1,1.352456212E-2,-9.234141558E-3,2.272605896E-2
5.937927670E-1,6.204664707E-3,-4.338309169E-3,2.133655548E-2
5.988341210E-1,-1.878154278E-2,1.230907440E-2,6.032848358E-2
6.038754230E-1,-3.130570054E-3,1.335020363E-2,4.377365112E-4
6.090776110E-1,-2.933338284E-2,-5.722146481E-3,-7.543563843E-4
6.141189130E-1,1.007917523E-2,-2.827354148E-2,2.537631989E-2
6.191602670E-1,2.785877883E-2,-1.392261311E-2,-5.084419250E-2
6.242015690E-1,-1.510533690E-2,5.107022822E-3,1.371669769E-2
6.292429230E-1,2.836897969E-3,-1.748868451E-2,3.617000580E-2
6.342842250E-1,-1.500318944E-2,-7.826626301E-3,4.180812836E-2
6.394652670E-1,1.589663327E-2,-5.369815975E-3,-4.524803162E-2
6.445066210E-1,-1.751862466E-2,1.711677760E-3,2.639389038E-2
6.495479230E-1,1.944781840E-2,1.232395694E-2,-2.490043640E-2
6.545892770E-1,1.547023654E-3,-2.009273320E-2,2.044200897E-2
6.596306320E-1,-6.857782602E-3,-2.107295394E-2,2.383422852E-2
6.646719340E-1,1.217748225E-2,8.630301803E-3,-2.495765686E-3
6.698843820E-1,9.753867984E-3,2.277277410E-2,2.484416962E-2
6.749257360E-1,2.162724733E-2,2.328880131E-3,-3.868103027E-3
6.799670900E-1,1.358136535E-3,1.069041342E-2,9.231567383E-3
6.850083920E-1,1.332803071E-2,1.190356910E-3,2.578544617E-2
6.900497460E-1,3.575895727E-2,-7.172349840E-3,-5.607604980E-4
6.950910480E-1,-1.075838506E-2,1.188030839E-2,3.388977051E-2
7.002826110E-1,-3.914839029E-2,9.393852204E-3,7.280254364E-2
7.053239650E-1,4.014521837E-3,-1.328892261E-2,-4.301643372E-2
7.103653190E-1,2.058316767E-2,1.291644573E-2,1.791667938E-2
7.154066210E-1,-8.093863726E-3,-8.584152907E-3,2.014350891E-2
7.204479750E-1,2.884864807E-4,4.513893276E-3,3.347396851E-3
7.254892770E-1,2.635851502E-3,1.998273283E-2,8.070945740E-3
7.306796940E-1,-9.130671620E-3,-2.063272521E-2,9.191513062E-3
7.357210480E-1,4.477500916E-4,-9.860791266E-3,-1.226520538E-2
7.407624020E-1,1.657292247E-3,1.166766882E-2,-7.411003113E-3
7.458037040E-1,-1.010520756E-2,2.346296981E-2,4.530906677E-3
7.508450590E-1,-4.108741879E-3,1.607900485E-2,5.081367493E-2
7.558863610E-1,6.641462445E-3,1.244699210E-2,-6.125736237E-2
7.610762570E-1,1.133693755E-2,-7.913414389E-3,-9.674072266E-3
7.661176110E-1,3.005385399E-3,-1.612098143E-2,1.297569275E-2
7.711589650E-1,1.132057607E-2,-1.797176898E-3,5.740165710E-3
7.762002670E-1,-7.285922766E-4,-6.467979401E-3,-1.212501526E-2
7.812416210E-1,2.076043189E-2,-1.726336777E-3,-3.221511841E-2
7.862829230E-1,1.557767391E-3,-8.876629174E-3,-3.432273865E-2
7.914752670E-1,-2.701438963E-2,-1.591524109E-2,-3.155708313E-3
7.965166210E-1,1.372402906E-2,2.822968736E-2,-4.315376282E-3
8.015579750E-1,-1.959609985E-2,-6.461791694E-3,3.966712952E-2
8.065992770E-1,1.258541644E-2,7.780823857E-3,1.676845551E-2
8.116406320E-1,-8.796200156E-3,-1.253814623E-2,3.088378906E-2
8.166819340E-1,2.044692636E-3,-8.934367448E-3,-2.555847168E-4
8.218713610E-1,2.348679304E-2,-2.892998606E-2,-2.519321442E-2
8.269127150E-1,3.999674320E-2,2.078879625E-3,2.334594727E-3
8.319540690E-1,9.969592094E-3,-1.487806439E-3,-2.381610870E-2
8.369953710E-1,6.659030914E-3,3.288079426E-2,-6.162261963E-2
8.420367250E-1,1.974581182E-2,-1.269328594E-2,1.847076416E-2
8.470780270E-1,-4.814416170E-4,-5.498398095E-3,2.188205719E-2
8.522681840E-1,4.247263074E-3,4.798388481E-2,-4.837799072E-2
8.573095380E-1,2.318991721E-2,1.785298064E-2,-5.216598511E-3
8.623508920E-1,1.943355799E-2,-6.140425801E-3,2.570724487E-2
8.673921940E-1,-3.311930597E-2,7.068563253E-3,1.836490631E-2
8.724335480E-1,8.703231812E-3,2.296637744E-3,-1.029396057E-2
8.774749020E-1,7.520005107E-3,-2.380702645E-3,-3.158569336E-2
8.826655790E-1,-6.769016385E-3,-2.186879516E-3,-8.754730225E-3
8.877068820E-1,-1.858980954E-2,1.449900866E-2,-3.671646118E-4
8.927482880E-1,1.128515601E-2,7.291030139E-3,1.032638550E-2
8.977895900E-1,-1.615303755E-2,4.894502461E-3,1.974201202E-2
9.028309440E-1,1.145550609E-2,1.199347898E-2,2.908229828E-2
9.078722460E-1,-1.853998005E-2,-2.140287310E-2,4.665374756E-2
9.130625070E-1,2.075739205E-2,-1.400381327E-2,-7.184982300E-3
9.181038610E-1,-1.957461238E-3,6.345562637E-3,1.544284821E-2
9.231452150E-1,2.545556426E-2,-5.624067038E-3,2.838134766E-2
9.281865170E-1,2.049283683E-2,-4.324540496E-3,-2.411651611E-2
9.332278710E-1,-1.642066240E-2,-2.092939615E-2,1.646900177E-2
9.382691730E-1,-3.175041080E-2,-9.096119553E-3,3.414630890E-2
9.434603710E-1,1.852035522E-3,1.113121212E-2,3.980159760E-2
9.485016730E-1,2.920895815E-3,-1.985484362E-2,6.084823608E-2
9.535430790E-1,-5.391627550E-3,-1.911163330E-3,5.083847046E-2
9.585843820E-1,3.372006118E-2,-2.215041220E-2,1.478004456E-2
9.636257360E-1,-1.172181964E-2,-8.885886520E-3,-3.641605377E-2
9.686670380E-1,-8.138731122E-3,8.864372969E-3,5.457878113E-3
9.738567250E-1,2.698704600E-3,-3.163180873E-2,4.341983795E-2
9.788980270E-1,-4.398822784E-3,-6.462391466E-3,-4.450798035E-3
9.839394340E-1,2.298223972E-2,-2.539876103E-2,-6.789207458E-3
9.889807360E-1,1.930463314E-2,1.394630969E-2,2.652549744E-2
9.940220900E-1,1.785269380E-2,5.426287651E-3,3.734588623E-3
9.990634440E-1,1.403675973E-2,7.228888571E-4,6.077766418E-3
1.004254173E0,1.991164684E-2,-3.503392637E-2,3.572082520E-2
1.009295527E0,-2.639575303E-2,1.162034646E-2,1.048278809E-2
1.014336882E0,-3.581970930E-3,1.930896193E-3,-3.711414337E-2
1.019378184E0,3.799384832E-2,1.734337211E-2,-4.155635834E-2
1.024419538E0,2.817496657E-2,-1.010499895E-2,-2.814388275E-2
1.029460840E0,-6.427183747E-3,-2.072254941E-2,1.128673553E-2
1.034615840E0,-5.132675171E-3,-1.583782211E-2,2.069664001E-2
1.039657194E0,-1.448872685E-2,-2.878242731E-2,3.952884674E-2
1.044698496E0,1.413798332E-2,1.420545578E-2,-1.662540436E-2
1.049739850E0,-9.682834148E-3,9.573996067E-4,2.033424377E-2
1.054781204E0,9.298771620E-3,-5.156774074E-3,-3.592491150E-3
1.059822507E0,6.846666336E-3,-8.716601878E-3,-2.494144440E-2
1.065049538E0,1.159359515E-2,-3.589257225E-2,4.059219360E-2
1.070090892E0,-6.345108151E-3,-2.607747912E-2,2.718830109E-2
1.075132246E0,9.071454406E-3,-2.334216610E-2,1.389694214E-2
1.080173548E0,-3.991931677E-3,-2.323680371E-2,1.734542847E-2
1.085214902E0,-3.880858421E-3,-4.880502820E-4,-6.151199341E-4
1.090256204E0,-9.787380695E-3,2.687456086E-2,1.126766205E-2
1.095447923E0,3.308059275E-2,1.951104403E-2,8.798599243E-3
1.100489277E0,5.486130714E-3,2.876205370E-2,-1.621913910E-2
1.105530632E0,2.681988478E-2,2.745262533E-2,-1.370716095E-2
1.110571934E0,1.366055012E-2,2.362243831E-2,5.292415619E-2
1.115613288E0,-7.832840085E-3,-1.585994288E-2,4.773044586E-2
1.120654590E0,5.220040679E-3,-2.149681747E-2,1.169967651E-2
1.125807507E0,-7.783308625E-3,8.338339627E-3,-3.353214264E-2
1.130848809E0,-1.492181420E-2,-1.196220517E-2,4.038715363E-2
1.135890215E0,-2.970904112E-3,-3.716688603E-3,-1.458740234E-2
1.140931517E0,-3.158211708E-2,-2.024732530E-2,-2.278137207E-2
1.145972871E0,1.154345274E-2,-2.195559442E-3,8.293151855E-3
1.151014173E0,-8.718192577E-3,1.373026520E-3,5.846977234E-3
1.156224954E0,1.281441748E-2,-1.517246664E-2,2.955627441E-2
1.161266309E0,-1.461194456E-2,-2.215589955E-2,7.930755615E-3
1.166307663E0,1.047857106E-2,8.924696594E-3,-2.776813507E-2
1.171348965E0,4.426702857E-3,8.890092373E-3,-1.090812683E-2
1.176390319E0,-1.918378472E-2,-2.334401384E-2,4.144573212E-2
1.181431621E0,9.482726455E-3,1.729923114E-2,-1.658439636E-3
1.186622194E0,-2.153119445E-2,-4.290111363E-3,4.705238342E-2
1.191663548E0,-2.296030521E-3,1.590040326E-2,3.901481628E-3
1.196704902E0,7.224962115E-3,-1.868833601E-2,-8.821487427E-4
1.201746204E0,-1.300162077E-2,-3.102645278E-3,-3.650665283E-2
1.206787559E0,-8.116602898E-3,-2.340921015E-2,-1.758575439E-3
1.211828861E0,-1.638931036E-2,-7.965527475E-3,-4.925727844E-2
1.217028913E0,5.153223872E-3,-2.702119946E-2,2.360725403E-2
1.222070267E0,-1.017485559E-2,1.016663015E-2,2.341270447E-2
1.227111621E0,-1.127800345E-2,-2.994678915E-3,-2.911567688E-3
1.232152923E0,-3.953948617E-3,-1.793913543E-3,2.205657959E-2
1.237194277E0,1.740720868E-2,-3.030724823E-3,1.830863953E-2
1.242235579E0,1.256278157E-2,-1.725882292E-3,-3.223419189E-3
1.247396569E0,2.188053727E-2,2.797093987E-2,-4.384994507E-3
1.252437923E0,-1.512233913E-2,-1.139219478E-2,1.940727234E-2
1.257479277E0,6.409019232E-3,1.843715459E-2,2.399826050E-2
1.262520579E0,3.612786531E-2,-6.672743708E-3,-2.489948273E-2
1.267561934E0,4.841670394E-3,-6.899386644E-4,-8.065223694E-3
1.272603236E0,3.333294392E-2,5.321267992E-3,-2.462673187E-2
1.277795579E0,2.833043039E-2,-1.136292145E-2,-2.204513550E-2
1.282836934E0,4.210025072E-3,3.039478883E-2,-1.354885101E-2
1.287878236E0,-5.249902606E-3,1.650255173E-3,1.507091522E-2
1.292919590E0,4.373610020E-3,-3.155509755E-2,-2.868652344E-3
1.297960892E0,1.032750309E-2,4.225920886E-3,-6.408691406E-3
1.303002246E0,1.494053006E-2,2.914119512E-3,3.165149689E-2
1.308215319E0,3.141771257E-2,-1.358997822E-2,1.238441467E-2
1.313256673E0,-1.144814491E-2,1.617941633E-2,1.822185516E-2
1.318297975E0,1.635625958E-3,-8.859600872E-3,-4.497528076E-3
1.323339329E0,-1.387065649E-2,3.080219030E-3,-5.791091919E-2
1.328380684E0,-1.613043249E-2,-1.828532666E-2,-2.417182922E-2
1.333421986E0,-1.742944121E-3,-1.693093032E-2,-3.228378296E-2
1.338604121E0,-2.062633634E-2,1.524112374E-2,1.242637634E-3
1.343645423E0,1.169303060E-2,-6.226446480E-3,2.498912811E-2
1.348686777E0,1.634685695E-2,1.397916675E-2,-1.322746277E-2
1.353728079E0,2.808880806E-2,1.026057452E-2,1.301288605E-2
1.358769434E0,9.986594319E-3,-5.225673318E-3,-2.535820007E-3
1.363810736E0,-2.102993429E-2,9.033169597E-3,1.292419434E-2
1.368986465E0,1.124098897E-2,5.303785205E-3,2.944564819E-2
1.374027819E0,2.191422880E-2,-1.969388872E-2,1.613616943E-2
1.379069121E0,-9.279578924E-3,-5.627684295E-4,3.619194031E-2
1.384110475E0,7.477223873E-3,-1.128362492E-2,4.182815552E-2
1.389151829E0,1.931786537E-2,4.292402416E-3,-3.654479980E-3
1.394193132E0,1.796895266E-2,1.015830413E-2,-1.248359680E-3
1.399405007E0,8.350610733E-5,2.853844315E-3,-1.549053192E-2
1.404446361E0,3.594338894E-3,-4.282236099E-3,2.739810944E-2
1.409487663E0,2.016630769E-2,-4.308152944E-3,-1.796722412E-2
1.414529017E0,2.123783529E-2,8.781153709E-3,9.501457214E-3
1.419570371E0,-3.473752737E-2,2.730693668E-3,6.287097931E-2
1.424611673E0,1.071275771E-2,-1.638570800E-2,-2.979278564E-3
1.429813079E0,-3.576084971E-3,1.501530409E-3,2.674007416E-2
1.434854434E0,1.078446209E-2,-1.391207054E-2,-8.020401001E-4
1.439895788E0,7.053375244E-3,7.598459721E-3,-2.692604065E-2
1.444937090E0,1.636764407E-2,9.975951165E-3,6.553649902E-3
1.449978444E0,9.130507708E-3,2.772345021E-2,-3.507137299E-2
1.455019746E0,6.782770157E-3,3.698766232E-3,2.817344666E-2
1.460210267E0,-1.117005944E-2,-7.087066770E-3,2.993583679E-3
1.465251621E0,1.740317047E-2,-1.310736686E-2,-8.373832703E-2
1.470292975E0,-7.684975863E-3,-1.065973565E-2,-3.434181213E-2
1.475334277E0,-6.381139159E-3,-3.275636584E-3,1.464366913E-2
1.480375632E0,1.164367795E-2,-9.199075401E-3,2.640151978E-2
1.485416934E0,1.381881535E-2,-7.972449064E-3,7.250118256E-2
1.490608236E0,1.375706494E-2,2.177563682E-2,-6.493568420E-3
1.495649590E0,-4.815757275E-4,-9.327717125E-4,7.814407349E-3
1.500690944E0,-2.539494634E-2,-9.250212461E-3,3.150367737E-2
1.505732246E0,1.765348017E-2,-2.816300094E-2,1.580238342E-2
1.510773600E0,-2.269577980E-2,8.905086666E-3,3.796577454E-3
1.515814902E0,3.334359825E-2,-6.543647498E-3,-2.236557007E-2
1.521005111E0,-8.585318923E-3,-7.689524442E-3,1.107692719E-2
1.526046465E0,9.224608541E-3,-2.434255928E-2,-8.935928345E-4
1.531087819E0,2.047806978E-3,-5.174752325E-3,-2.939319611E-2
1.536129121E0,-3.830164671E-3,1.905050129E-3,1.836299896E-2
1.541170475E0,1.414752007E-2,-9.948626161E-3,4.671764374E-2
1.546211777E0,3.313258290E-3,1.757179946E-2,-1.424694061E-2
1.551404798E0,7.983684540E-3,-1.222795621E-2,5.001068115E-2
1.556446152E0,3.191992640E-3,-1.345473155E-2,1.277160645E-2
1.561487507E0,-2.761265635E-2,-1.338076591E-2,-2.534198761E-2
1.566528809E0,2.252878249E-2,-2.719663084E-3,-6.432819366E-2
1.571570163E0,1.748654246E-2,1.505604014E-2,-2.459812164E-2
1.576611465E0,-2.539235353E-2,-1.480152458E-2,5.512237549E-4
1.581786569E0,-3.001065552E-2,3.044884652E-3,4.211521149E-2
1.586827923E0,-1.777929068E-2,-1.470569894E-2,-3.367424011E-3
1.591869225E0,-2.164736390E-3,-2.401854470E-2,3.942012787E-2
1.596910579E0,-1.291370392E-2,-1.263614744E-3,2.127552032E-2
1.601951934E0,-8.249282837E-4,-1.435623318E-2,1.159667969E-2
1.606993236E0,-1.850381494E-3,-1.659855247E-2,-1.562118530E-3
1.612197611E0,6.532669067E-3,1.237370074E-3,-4.549694061E-2
1.617238965E0,2.940788865E-3,1.425493881E-2,-4.155445099E-2
1.622280319E0,4.026591778E-3,2.272490412E-3,8.677482605E-3
1.627321621E0,3.606233001E-2,1.177021861E-2,-8.964538574E-4
1.632362975E0,-1.298788190E-2,-2.867186815E-2,1.217556000E-2
1.637404329E0,-1.512557268E-2,-5.903683603E-3,-1.880455017E-2
1.642593132E0,-7.456392050E-4,-1.063935459E-3,-4.715442657E-2
1.647634486E0,-1.031927764E-2,-1.883096248E-2,3.123283386E-3
1.652675840E0,-3.037364781E-2,-1.137772948E-2,7.850646973E-3
1.657717142E0,7.938966155E-3,2.752736211E-3,-5.292892456E-4
1.662758496E0,-1.709522307E-2,-6.811454892E-3,2.679252625E-2
1.667799798E0,6.725654006E-3,6.348684430E-3,-2.213001251E-2
1.672993184E0,6.803572178E-3,1.103308797E-2,-5.655288696E-4
1.678034538E0,-1.593574882E-3,-8.956231177E-4,1.488113403E-2
1.683075892E0,2.806204557E-2,5.038686097E-3,-3.869247437E-2
1.688117194E0,2.936512232E-3,2.609565854E-4,-2.767848969E-2
1.693158548E0,-5.375400186E-3,-1.517022401E-2,-3.576278687E-2
1.698199850E0,1.839867234E-2,-2.951536328E-2,8.479118347E-3
1.703389590E0,-1.152868569E-2,-1.022362709E-2,-4.657745361E-3
1.708430892E0,1.707322896E-2,-3.984328359E-2,-2.124691010E-2
1.713472298E0,-8.141607046E-3,7.858861238E-3,-8.007049561E-3
1.718513600E0,1.338341832E-2,4.218500108E-3,-4.238510132E-2
1.723554954E0,-3.330767155E-3,-1.834428683E-2,3.636169434E-2
1.728596309E0,2.874073386E-2,-3.134627268E-2,-3.639507294E-2
1.733774173E0,7.148131728E-3,-3.672305495E-3,5.481719971E-3
1.738815527E0,-2.336025238E-3,8.224282414E-3,-4.065513611E-3
1.743856829E0,-8.228749037E-3,-2.860050648E-2,-6.406784058E-3
1.748898184E0,-4.025565088E-2,3.592621535E-3,-5.166053772E-3
1.753939538E0,7.642120123E-3,-1.278206706E-3,3.190994263E-3
1.758980840E0,-1.855212450E-2,-1.669449732E-2,6.730365753E-2
1.764182298E0,-1.140443981E-2,2.856746502E-2,-1.283931732E-2
1.769223652E0,8.959516883E-3,1.636368781E-2,-6.793022156E-3
1.774265007E0,-4.257306457E-3,1.608470082E-2,7.514953613E-3
1.779306309E0,1.010869443E-2,-2.919539064E-2,-2.048492432E-3
1.784347663E0,-6.552532315E-3,-1.360042021E-2,4.072761536E-2
1.789389017E0,-7.737278938E-3,-1.246641576E-2,-1.306247711E-2
1.794579694E0,9.062632918E-3,5.441181362E-3,-2.601814270E-2
1.799621048E0,1.492567360E-2,-2.072022855E-2,-5.609512329E-3
1.804662402E0,-2.439443767E-2,9.159959853E-3,-1.862907410E-2
1.809703704E0,1.864632964E-2,-2.294711769E-2,8.846282959E-3
1.814745059E0,3.158241510E-2,2.226460725E-3,4.678153992E-2
1.819786361E0,4.381090403E-4,-6.067655981E-3,-8.244514465E-3
1.824978652E0,2.521787584E-2,7.062215358E-3,1.082611084E-2
1.830020007E0,1.164674759E-4,9.237982333E-3,-4.508781433E-2
1.835061361E0,2.978418767E-2,-3.226835653E-2,6.361961365E-3
1.840102663E0,-6.097152829E-3,-1.540761068E-2,-3.192901611E-3
1.845144017E0,-2.019539475E-2,-7.029592991E-3,4.671955109E-2
1.850185319E0,3.883332014E-3,-1.997071877E-2,5.939960480E-2
1.855374538E0,-5.624502897E-3,6.341055036E-3,-3.730392456E-2
1.860415892E0,3.924369812E-3,-1.990577579E-2,-3.818130493E-2
1.865457246E0,5.105718970E-3,1.446101815E-3,1.320934296E-2
1.870498548E0,-2.037540078E-3,2.042658627E-2,-2.253341675E-2
1.875539902E0,2.059853077E-2,-3.562111408E-3,-4.134941101E-2
1.880581204E0,2.353936434E-4,-1.067160442E-2,3.382396698E-2
1.885758288E0,-2.195537090E-3,8.516468108E-3,2.660751343E-3
1.890799642E0,-2.464188635E-2,2.860130742E-2,2.639484406E-2
1.895840944E0,-1.733618975E-2,4.596892744E-3,-2.331733704E-3
1.900882298E0,1.609167457E-2,-3.081709146E-4,-3.200531006E-2
1.905923652E0,1.118013263E-2,-3.937445581E-4,-9.172439575E-3
1.910964954E0,2.887728810E-2,-2.725515515E-3,4.062652588E-4
1.916167507E0,2.452686429E-3,8.001383394E-3,-7.867813110E-4
1.921208861E0,-9.419336915E-3,-2.179704979E-2,-3.522491455E-2
1.926250215E0,-9.263634682E-3,1.405813172E-2,-5.274677277E-2
1.931291517E0,1.425936818E-3,-2.405335754E-2,1.895713806E-2
1.936332871E0,6.139039993E-3,1.104611903E-3,-1.393318176E-3
1.941374173E0,-5.790203810E-3,-1.438187063E-2,-1.563453674E-2
1.946565423E0,-2.102243900E-2,-2.477679402E-3,-2.619075775E-2
1.951606777E0,-1.253283024E-2,-1.308123395E-2,2.628803253E-2
1.956648132E0,-1.960638165E-2,-2.242971212E-3,2.369308472E-2
1.961689434E0,3.532344103E-2,-4.456937313E-3,-3.826522827E-2
1.966730788E0,3.149132431E-2,-1.630828157E-2,2.856826782E-2
1.971772090E0,2.046163380E-2,2.063617110E-2,-1.205539703E-2
1.976927090E0,-1.410086453E-2,2.406814322E-2,2.724266052E-2
1.981968444E0,-8.070662618E-3,-2.244038507E-2,2.701568604E-2
1.987009798E0,6.223767996E-3,9.804479778E-3,2.797698975E-2
1.992051100E0,2.997893095E-2,-1.058448106E-2,-4.827308655E-2
1.997092454E0,3.624096513E-3,-2.063941211E-3,3.205299377E-3
2.002133757E0,-1.105144620E-3,-5.518879741E-3,-8.698463440E-3
2.007359954E0,-1.297338307E-2,7.606878877E-3,-2.881717682E-2
2.012401309E0,2.276699245E-2,9.908441454E-3,2.130794525E-2
2.017442663E0,3.495320678E-3,-1.391468942E-2,2.825641632E-2
2.022483965E0,1.425942779E-2,3.251222894E-2,-9.986877441E-3
2.027525319E0,9.467214346E-3,-7.044233382E-3,-1.346588135E-2
2.032566621E0,-2.859410644E-2,-2.142678946E-3,6.839752197E-3
2.037745163E0,-2.225220203E-3,1.327755302E-2,-3.360080719E-2
2.042786517E0,-1.071304083E-3,-5.769878626E-3,5.874633789E-3
2.047827819E0,4.890133440E-2,1.444175839E-3,-1.911735535E-2
2.052869173E0,1.533985138E-2,2.752570808E-2,-1.539325714E-2
2.057910475E0,-1.680627465E-2,-2.356477082E-3,-8.136749268E-3
2.062951829E0,-1.782836020E-2,-2.130050957E-2,2.637767792E-2
2.068122507E0,6.207972765E-3,-1.989411190E-2,2.378368378E-2
2.073163861E0,-8.926689625E-4,1.639377326E-3,-4.174041748E-2
2.078205163E0,-1.389890909E-2,-1.374917477E-2,2.037143707E-2
2.083246517E0,2.554252744E-2,-2.879492939E-3,2.614307404E-2
2.088287819E0,2.778287232E-2,2.703335881E-2,1.998806000E-2
2.093329173E0,-9.217500687E-3,-1.227024198E-2,-1.699733734E-2
2.098524382E0,3.359256685E-2,-8.458208293E-3,1.165103912E-2
2.103565736E0,-1.176999509E-2,-3.200037777E-2,5.550289154E-2
2.108607038E0,2.573877573E-4,4.656914622E-2,-4.346847534E-3
2.113648392E0,1.221050322E-2,-3.949429840E-3,7.565498352E-3
2.118689694E0,1.522630453E-3,-4.431083798E-4,-3.050518036E-2
2.123731048E0,-1.749460399E-2,-1.950616762E-2,-3.737735748E-2
2.128932975E0,1.361326873E-2,3.177065402E-2,-1.093482971E-2
2.133974277E0,-2.804636955E-2,1.370482519E-2,2.122592926E-2
2.139015632E0,1.855105162E-3,4.000075161E-3,1.392078400E-2
2.144056934E0,-3.134056926E-2,9.869117290E-3,4.112434387E-2
2.149098288E0,-6.084829569E-3,-2.704521641E-2,3.365612030E-2
2.154139590E0,-8.409500122E-3,-2.089299262E-2,-1.057147980E-2
2.159333757E0,-8.312851191E-3,-8.799970150E-3,-4.255199432E-2
2.164375059E0,-2.019824088E-2,1.976692304E-2,-1.488018036E-2
2.169416413E0,3.724589944E-3,2.800972015E-2,-5.025863647E-4
2.174457715E0,-1.298634708E-2,1.586023346E-2,-6.437301636E-3
2.179499069E0,-2.008184791E-2,-1.872956008E-2,2.687263489E-2
2.184540371E0,2.178630233E-2,6.280265749E-3,5.187988281E-4
2.189704329E0,2.870394289E-2,-1.167798787E-2,-3.868293762E-2
2.194745684E0,4.658371210E-3,5.610889569E-2,1.389980316E-2
2.199786986E0,-2.455323935E-3,-1.326024532E-2,2.447509766E-2
2.204828340E0,5.905717611E-3,9.379163384E-3,3.614807129E-2
2.209869694E0,2.615176141E-2,-1.932021230E-2,-8.099555969E-3
2.214910996E0,1.094177365E-3,-9.668394923E-3,-9.219169617E-3
2.220139798E0,-1.237049699E-3,-3.633894026E-3,2.886676788E-2
2.225181152E0,2.379389107E-2,-5.965217948E-3,1.793766022E-2
2.230222507E0,-1.372873783E-3,-4.559025168E-3,-2.259445190E-2
2.235263809E0,1.996690035E-2,1.563235745E-2,-1.171779633E-2
2.240305163E0,-1.944658160E-2,-1.312052459E-2,4.420375824E-2
2.245346517E0,-8.620291948E-3,2.000101283E-2,1.651477814E-2
2.250523132E0,1.776824892E-2,1.623224467E-2,-2.625465393E-3
2.255564486E0,-1.442380250E-2,-1.719701290E-2,5.084609985E-2
2.260605788E0,-5.963489413E-3,2.068128437E-3,4.210853577E-2
2.265647142E0,2.489045262E-2,6.764117628E-3,2.394104004E-2
2.270688496E0,-1.567474008E-2,8.967876434E-3,-3.208351135E-2
2.275729798E0,9.269565344E-3,-6.456207484E-3,2.400779724E-2
2.280917402E0,-3.098994493E-4,1.021461934E-2,-1.063728333E-2
2.285958757E0,2.703724802E-2,3.042388707E-3,-4.499340057E-2
2.291000111E0,-2.661198378E-2,1.266404241E-2,4.327774048E-2
2.296041413E0,-8.470416069E-3,-1.353204995E-2,2.510166168E-2
2.301082767E0,1.060438156E-2,-9.971402586E-3,7.075309753E-3
2.306124069E0,2.489808202E-2,-1.356593519E-2,2.839756012E-2
2.311332819E0,9.383603930E-3,1.746956259E-2,-6.804466248E-2
2.316374173E0,-9.802326560E-3,2.433583140E-2,4.972457886E-3
2.321415527E0,-1.093368232E-2,-7.845968008E-3,-2.001190186E-2
2.326456829E0,3.550598025E-2,-1.386062428E-2,3.910064697E-3
2.331498184E0,1.824006438E-3,2.819139510E-3,-1.512908936E-2
2.336539538E0,2.086503804E-2,2.178713307E-2,-7.875442505E-3
2.341721048E0,9.974420071E-3,-8.933134377E-4,-1.731204987E-2
2.346762402E0,4.056051373E-3,-2.702848986E-2,-5.369186401E-4
2.351803704E0,8.773595095E-3,2.779546753E-2,2.441024780E-2
2.356845059E0,-2.336829901E-2,-1.985636353E-2,1.351737976E-2
2.361886413E0,1.609987020E-2,1.830611005E-2,1.815700531E-2
2.366927715E0,1.369355619E-2,1.228075847E-2,2.038288116E-2
2.372125319E0,-1.123018563E-2,1.564974338E-2,9.523391724E-3
2.377166673E0,3.142207861E-3,1.706629992E-4,2.963733673E-2
2.382208027E0,-1.934801042E-2,-1.760699973E-2,8.011817932E-3
2.387249329E0,3.201626241E-2,3.497017175E-2,-7.492065430E-3
2.392290684E0,-2.404904366E-2,4.920791835E-3,-4.306316376E-2
2.397331986E0,-1.455545425E-4,-8.170597255E-3,4.400062561E-2
2.402522402E0,-1.318341494E-2,-1.048926637E-2,-3.128051758E-4
2.407563757E0,-2.146549523E-2,1.217980683E-2,3.252029419E-3
2.412605111E0,2.468466759E-3,-3.177687526E-2,1.272773743E-2
2.417646413E0,-1.776920259E-2,-1.122971624E-2,-2.657318115E-2
2.422687767E0,-1.157876849E-2,-6.371196359E-3,1.997184753E-2
2.427729069E0,1.464851201E-2,-2.715047449E-3,-7.513046265E-3
2.432919329E0,-5.638703704E-3,-5.213376135E-3,-1.814174652E-2
2.437960684E0,1.349014044E-2,1.149846241E-2,-7.299423218E-3
2.443002038E0,-3.354057670E-3,9.014829993E-3,-1.301765442E-3
2.448043340E0,2.055878937E-2,1.001137495E-2,1.414966583E-2
2.453084694E0,-5.717739463E-3,5.166005343E-3,1.640701294E-2
2.458125996E0,-2.108512819E-2,9.862393141E-3,-2.055072784E-2
2.463317507E0,1.234760880E-2,-1.860440522E-2,-2.631664276E-2
2.468358809E0,1.709929109E-2,-1.125718281E-2,-1.659393311E-2
2.473400215E0,-4.396826029E-3,-1.365428418E-2,7.299423218E-3
2.478441517E0,6.355747581E-3,8.937031031E-3,3.930854797E-2
2.483482871E0,1.113158464E-2,5.364920944E-3,1.047706604E-2
2.488524173E0,1.449872553E-2,6.496030837E-3,-3.237152100E-2
2.493714642E0,1.205565035E-2,-4.179988056E-3,1.659774780E-2
2.498755944E0,1.198038459E-2,7.773935795E-3,-8.481979370E-3
2.503797350E0,1.323521137E-4,-4.154499620E-3,-1.282691956E-3
2.508838652E0,2.050413191E-2,-1.368526742E-2,3.479003906E-3
2.513880007E0,1.447172463E-2,-1.239437610E-2,-2.980518341E-2
2.518921361E0,1.192398369E-2,1.496367902E-2,-3.193283081E-2
2.524111829E0,3.668774664E-2,-1.008960977E-2,2.772045135E-2
2.529153184E0,-1.345166564E-2,3.098897636E-3,2.273941040E-2
2.534194538E0,-8.640602231E-3,5.515266210E-3,-1.783466339E-2
2.539235840E0,-1.215729117E-2,-1.468349621E-2,6.069183350E-3
2.544277194E0,-1.089413464E-2,6.884489208E-3,-1.773643494E-2
2.549318548E0,5.851581693E-3,-2.713449299E-3,-5.322170258E-2
2.554507871E0,-3.568907082E-2,-3.916792572E-3,1.017379761E-2
2.559549225E0,1.805771887E-2,1.990623772E-3,3.503131866E-2
2.564590579E0,9.118020535E-5,-2.844668925E-4,9.798049927E-3
2.569631882E0,1.191607118E-2,-9.717822075E-3,-1.760196686E-2
2.574673236E0,2.129329741E-2,4.256050289E-2,2.055263519E-2
2.579714538E0,-8.525833488E-3,-2.075833455E-2,3.107166290E-2
2.584905267E0,2.963377535E-2,-5.129873753E-4,-2.263641357E-2
2.589946621E0,-1.086729765E-2,1.739881188E-2,-1.888370514E-2
2.594987975E0,2.245455980E-2,-1.710183918E-3,-4.472732544E-3
2.600029277E0,7.885128260E-3,6.554707885E-3,-4.438400269E-3
2.605070632E0,5.366638303E-3,2.179934084E-2,-4.359912872E-2
2.610111934E0,2.918031812E-2,4.977807403E-3,1.852893829E-2
2.615302975E0,-1.731902361E-3,-1.013696194E-3,-3.269672394E-2
2.620344329E0,-1.691326499E-3,3.681778908E-3,1.271057129E-2
2.625385684E0,-4.630088806E-4,3.612257540E-3,-2.835273743E-3
2.630426986E0,6.768256426E-4,-3.555998206E-3,-2.656841278E-2
2.635468340E0,1.730006933E-2,-3.538645804E-3,3.185176849E-2
2.640509642E0,1.478096843E-2,-1.550316438E-2,-1.117324829E-2
2.645700632E0,1.708589494E-2,-1.192772761E-2,3.172874451E-3
2.650741986E0,3.955394030E-3,9.540408850E-3,4.334449768E-3
2.655783340E0,-1.745724678E-2,-2.024463937E-2,2.567958832E-2
2.660824642E0,2.829179168E-3,3.640037030E-3,1.714992523E-2
2.665865996E0,-7.577389479E-4,5.999486893E-3,3.719806671E-2
2.670907298E0,-2.574630082E-2,1.531098783E-2,-1.418685913E-2
2.676062611E0,1.377032697E-2,1.271596551E-2,-3.782272339E-2
2.681103965E0,3.043931723E-2,9.086851031E-3,-2.206611633E-2
2.686145267E0,-7.900208235E-3,1.612607762E-2,8.999824524E-3
2.691186621E0,1.354521513E-2,-5.399551243E-3,-1.007938385E-2
2.696227975E0,9.868770838E-3,7.674004883E-3,5.058002472E-2
2.701269277E0,-2.116829157E-3,-1.509859040E-2,1.808834076E-2
2.706494173E0,-1.870056987E-2,-4.215635359E-3,3.338050842E-2
2.711535527E0,9.987443686E-3,-6.697285920E-3,5.210494995E-2
2.716576882E0,1.824483275E-2,4.087444395E-3,-4.691314697E-2
2.721618184E0,9.778276086E-3,-5.304764956E-3,-2.039051056E-2
2.726659538E0,1.803709567E-2,1.378335059E-2,5.910873413E-3
2.731700840E0,3.659039736E-3,-1.118154824E-2,3.486633301E-3
2.736891309E0,-1.178553700E-2,-1.112729311E-2,7.021903992E-3
2.741932663E0,2.632117271E-2,1.157227531E-2,3.071784973E-2
2.746974017E0,4.773721099E-3,-1.474369317E-2,-9.922027588E-3
2.752015319E0,-3.632158041E-3,-1.574259251E-2,-2.884387970E-2
2.757056673E0,-1.251801848E-3,2.192333341E-3,-1.791381836E-2
2.762097975E0,1.068790257E-2,-7.287878543E-3,-2.251529694E-2
2.767288444E0,-1.199507713E-2,-6.078310311E-3,2.393722534E-4
2.772329798E0,4.707112908E-3,-6.038229913E-3,4.656028748E-2
2.777371152E0,5.830109119E-3,1.178078353E-3,5.923843384E-2
2.782412454E0,-3.694266081E-3,1.078043133E-3,1.836013794E-2
2.787453809E0,8.110553026E-3,-1.557115465E-2,-4.474639893E-2
2.792495163E0,4.024177790E-2,-2.485160530E-2,-3.249454498E-2
2.797685423E0,-2.663490176E-2,6.252221763E-3,-1.084423065E-2
2.802726725E0,2.703680098E-2,2.546284348E-3,-5.588912964E-2
2.807768027E0,1.490794122E-2,-2.707703412E-2,1.109027863E-2
2.812809382E0,-8.971646428E-3,1.352111995E-2,1.218605042E-2
2.817850684E0,-1.124688983E-2,-3.153510392E-3,3.584003448E-2
2.822892038E0,6.689220667E-3,6.414618343E-3,-2.621936798E-2
2.828071829E0,-6.325975060E-3,-8.009437472E-3,-2.362537384E-2
2.833113184E0,6.739869714E-3,1.497078687E-3,-1.986694336E-2
2.838154486E0,1.016888022E-2,1.929039881E-2,9.991645813E-3
2.843195840E0,-1.829279959E-2,1.082959771E-2,6.346702576E-3
2.848237194E0,-5.139747262E-2,-1.183999702E-2,4.667854309E-2
2.853278496E0,2.879150212E-2,-1.281103119E-2,2.016162872E-2
2.858416829E0,-6.051793694E-3,-1.268938556E-2,-1.801681519E-2
2.863458184E0,-9.538337588E-3,9.841822088E-3,2.014160156E-2
2.868499538E0,-9.510323405E-3,-2.002401650E-2,-8.533477783E-3
2.873540840E0,-1.193562150E-2,-1.279461384E-2,-2.271747589E-2
2.878582194E0,3.696550429E-2,2.169331536E-2,-3.202915192E-2
2.883623496E0,9.442597628E-3,1.070732996E-2,1.337242126E-2
2.888864173E0,7.042601705E-3,7.068578154E-3,5.483341217E-2
2.893905475E0,-3.213422000E-2,-2.401221544E-3,2.230930328E-2
2.898946829E0,2.643726766E-2,3.468040377E-3,-5.508041382E-2
2.903988132E0,4.915326834E-3,1.656943187E-2,1.716613770E-5
2.909029486E0,1.429834962E-2,2.483853325E-2,-4.734992981E-3
2.914070788E0,4.023207724E-2,-2.724003047E-3,-2.963924408E-2
2.919265059E0,-2.545623481E-2,-1.105491817E-2,-1.157665253E-2
2.924306413E0,-3.113104403E-2,1.159266010E-2,-2.335739136E-2
2.929347767E0,-1.055049896E-2,7.946304977E-4,-1.365852356E-2
2.934389069E0,-2.148747444E-3,-3.018185124E-2,-1.667976379E-3
2.939430423E0,-7.991477847E-3,-9.725555778E-3,-4.028320312E-3
2.944471777E0,1.525759697E-3,2.357456088E-2,-4.320144653E-4
2.949670579E0,-1.519560814E-2,-5.246721208E-3,-2.805709839E-3
2.954711934E0,-7.645040751E-4,-1.946700364E-2,7.810592651E-4
2.959753288E0,1.238459349E-2,1.510309428E-2,-3.010654449E-2
2.964794590E0,-1.144801080E-2,5.463570356E-3,3.072071075E-2
2.969835944E0,1.361615956E-2,-1.829699799E-2,-1.823329926E-2
2.974877246E0,4.117339849E-4,-6.227511913E-3,-1.926898956E-2
2.980070579E0,3.231795132E-2,9.359847754E-3,-1.198291779E-2
2.985111934E0,1.893147826E-2,-3.352537751E-4,-4.395389557E-2
2.990153288E0,2.584825456E-2,-3.175176680E-4,1.342391968E-2
2.995194590E0,2.330866456E-2,5.664724857E-3,-1.163005829E-2
3.000235944E0,3.052398562E-3,4.390925169E-3,-1.390647888E-2
3.005277246E0,-4.099786282E-3,-3.351002932E-2,7.291603088E-2
3.010464850E0,-9.977504611E-3,1.065041125E-2,1.043319702E-3
3.015506204E0,9.764283895E-4,1.160851866E-2,-4.901885986E-3
3.020547559E0,2.208083868E-3,-8.537240326E-3,1.176834106E-2
3.025588861E0,-8.499741554E-3,2.010504901E-2,-2.752494812E-2
3.030630215E0,-2.864673734E-2,-2.761026844E-2,-1.660728455E-2
3.035671517E0,-2.009387314E-2,-1.312479377E-3,-8.153915405E-3
3.040862767E0,-2.235588431E-2,1.304753497E-2,1.091766357E-2
3.045904121E0,3.909021616E-3,5.646198988E-3,-6.990432739E-3
3.050945475E0,3.132969141E-4,-1.452710479E-2,3.226375580E-2
3.055986777E0,7.566824555E-3,-1.792989299E-2,-3.095436096E-2
3.061028132E0,3.014868498E-2,2.966652811E-2,-6.157684326E-2
3.066069434E0,1.564481854E-2,-6.200212985E-3,-4.050254822E-3
3.071258652E0,-1.061548293E-2,9.092293680E-3,-2.302169800E-2
3.076300007E0,2.985689044E-2,6.577350199E-3,2.113342285E-3
3.081341361E0,2.601951361E-2,2.868726850E-3,3.297519684E-2
3.086382663E0,-3.363701701E-2,-1.382125169E-2,6.001853943E-2
3.091424017E0,-4.824534059E-3,9.959563613E-3,-1.293563843E-2
3.096465371E0,7.248386741E-3,1.231805980E-2,2.043247223E-2
3.101657038E0,-1.297684014E-2,2.294548228E-2,7.197380066E-3
3.106698392E0,3.474517167E-2,-2.200596035E-3,1.782894135E-2
3.111739746E0,3.215764463E-2,2.583038062E-3,4.614830017E-3
3.116781048E0,-3.089755774E-4,8.281484246E-3,6.950378418E-3
3.121822402E0,-3.000025451E-2,1.125704497E-3,-3.798484802E-3
3.126863704E0,3.299593925E-3,5.908500403E-3,2.236175537E-2
3.132054017E0,-3.934338689E-3,4.686191678E-3,-8.707046509E-3
3.137095371E0,1.148755848E-2,7.243789732E-3,6.806373596E-3
3.142136725E0,-4.074618220E-3,7.145281881E-3,-1.700592041E-2
3.147178027E0,-4.778802395E-4,2.014050260E-2,-1.805210114E-2
3.152219382E0,-7.548615336E-3,-1.321891695E-2,2.961063385E-2
3.157260684E0,3.517055511E-2,-8.191540837E-5,1.391983032E-2
3.162450892E0,-1.973249018E-2,-1.194483042E-2,1.855564117E-2
3.167492246E0,1.007366180E-2,8.310157806E-3,-1.960849762E-2
3.172533600E0,-2.089202404E-2,-1.080068201E-2,-1.944541931E-2
3.177574902E0,-5.225390196E-3,3.201115504E-2,-1.928329468E-2
3.182616257E0,-7.609456778E-3,2.013672143E-3,-3.575134277E-2
3.187657611E0,-7.571607828E-3,-1.397650689E-3,-3.664016724E-2
3.192848288E0,1.912996173E-3,9.426400065E-3,3.611850739E-2
3.197889642E0,1.269063354E-2,3.061177209E-2,3.344249725E-2
3.202930996E0,2.208669484E-2,-1.365334913E-2,1.772308350E-2
3.207972298E0,-6.474107504E-3,-1.226031780E-2,3.324508667E-3
3.213013652E0,-4.070237279E-3,-3.357592970E-2,9.234428406E-3
3.218054954E0,1.019102335E-2,5.887940526E-3,8.440017700E-4
3.223245423E0,-8.977964520E-3,2.950221300E-2,-1.222991943E-2
3.228286777E0,-2.664209902E-2,-2.314554900E-2,9.374618530E-4
3.233328132E0,8.724480867E-4,1.137727126E-2,1.993274689E-2
3.238369434E0,-1.108987629E-2,-3.053374961E-2,3.282928467E-2
3.243410788E0,-1.564475894E-2,1.115063578E-2,9.988784790E-3
3.248452090E0,-1.316507161E-2,-3.641180322E-2,3.484916687E-2
3.253643132E0,2.738210559E-2,-5.186401308E-3,-5.570983887E-2
3.258684486E0,1.878768206E-2,5.561240017E-3,-1.248741150E-2
3.263725840E0,1.023951173E-2,-2.646341920E-2,4.581546783E-2
3.268767142E0,3.029444814E-2,1.425824687E-2,1.098918915E-2
3.273808496E0,3.833428025E-3,-2.031647786E-2,2.871227264E-2
3.278849850E0,-1.760423183E-2,1.426069066E-2,-2.141284943E-2
3.284040007E0,-2.695944905E-2,-6.088953465E-3,-3.430080414E-2
3.289081361E0,-4.064157605E-3,-2.512060106E-3,-3.282642365E-2
3.294122715E0,4.234397411E-2,-1.366697252E-3,1.258182526E-2
3.299164017E0,6.332620978E-3,-9.784989059E-3,2.791786194E-2
3.304205371E0,-7.946789265E-3,2.031859010E-3,2.739906311E-3
3.309246673E0,-4.265919328E-3,1.974279061E-2,7.468223572E-3
3.314436152E0,-9.114056826E-3,4.097796977E-3,-1.159954071E-2
3.319477507E0,1.933889091E-2,-6.560534239E-3,1.937770844E-2
3.324518861E0,-1.534503698E-2,-5.484536290E-3,-2.592182159E-2
3.329560163E0,1.470971107E-2,2.184180170E-2,1.824474335E-2
3.334601517E0,8.700415492E-3,-7.969200611E-3,1.096630096E-2
3.339642819E0,-2.114348114E-2,-1.612560451E-2,-2.191543579E-3
3.344833809E0,-4.445388913E-3,-5.619637668E-4,-4.550933838E-3
3.349875163E0,2.546676993E-2,-1.257610694E-2,1.924419403E-2
3.354916517E0,-4.490733147E-3,1.137467474E-2,-7.046699524E-3
3.359957819E0,2.642855048E-2,-6.496705115E-3,-1.292705536E-2
3.364999173E0,-3.563418984E-3,8.935302496E-3,9.747505188E-3
3.370040475E0,-8.207246661E-3,7.661480457E-3,2.540588379E-3
3.375217559E0,1.804512739E-2,-1.257995889E-2,3.708839417E-3
3.380258913E0,2.373020351E-2,-8.923791349E-3,2.386760712E-2
3.385300267E0,-2.572730184E-3,-7.620871067E-3,3.198337555E-2
3.390341569E0,2.236558497E-2,-2.063396573E-2,1.033687592E-2
3.395382923E0,-3.723475337E-2,3.281883895E-3,5.063533783E-2
3.400424225E0,1.185099781E-2,-1.352578402E-3,3.892898560E-3
3.405616309E0,-3.795340657E-3,-4.149693623E-2,-3.177261353E-2
3.410657663E0,-8.540153503E-3,9.935706854E-3,-5.376815796E-3
3.415699017E0,2.946160734E-2,3.799062222E-3,8.917808533E-3
3.420740319E0,2.183085680E-2,-1.052315906E-2,3.022003174E-2
3.425781673E0,-1.042151451E-2,-6.752446294E-3,-9.226799011E-3
3.430822975E0,2.679079771E-3,2.546480671E-2,-9.149551392E-3
3.435994225E0,1.448136568E-2,-4.400536418E-3,-4.323005676E-3
3.441035579E0,2.483084798E-3,1.116884500E-2,-1.259994507E-2
3.446076934E0,-9.711235762E-4,-8.144304156E-4,4.135131836E-3
3.451118236E0,1.928018034E-2,-3.142364323E-3,-3.390598297E-2
3.456159590E0,1.080456376E-2,-7.877454162E-3,2.101421356E-2
3.461200892E0,-5.888685584E-3,-5.472753197E-3,-5.407333374E-4
3.466422298E0,1.073549688E-2,-1.132472977E-2,-1.724243164E-3
3.471463652E0,2.331718802E-3,3.114588559E-3,2.085876465E-2
3.476505007E0,2.604198456E-2,1.727738604E-2,3.493690491E-2
3.481546309E0,-2.810254693E-3,-1.934725791E-3,-1.999378204E-2
3.486587663E0,1.397104561E-2,4.137907177E-3,2.412319183E-2
3.491628965E0,5.669429898E-3,4.143886268E-3,1.323318481E-2
3.496820527E0,6.809309125E-3,1.373403147E-2,-2.369689941E-2
3.501861882E0,-1.108926535E-2,-6.978549063E-4,2.163505554E-2
3.506903236E0,5.527839065E-3,-5.324348807E-3,1.551437378E-2
3.511944538E0,-1.593098044E-3,-1.827932522E-2,2.845096588E-2
3.516985892E0,1.145943999E-2,-6.312422454E-3,2.346229553E-2
3.522027194E0,1.837238669E-3,5.448270589E-3,-4.206085205E-2
3.527213288E0,-8.920818567E-3,-9.997390211E-3,-1.676750183E-2
3.532254642E0,-2.431310713E-2,3.035858274E-3,-7.125854492E-3
3.537295996E0,1.503421366E-2,2.972081304E-3,1.668739319E-2
3.542337298E0,-1.721245050E-2,-5.237720907E-4,1.060962677E-2
3.547378652E0,-1.469381154E-2,-2.188411728E-2,-7.294654846E-3
3.552419954E0,-5.043059587E-3,-4.001449794E-3,-6.047248840E-3
3.557614121E0,-2.028203011E-2,-1.458993182E-2,5.458259583E-2
3.562655423E0,2.974647284E-2,-3.763254732E-3,-2.901554108E-2
3.567696725E0,-4.946276546E-3,-1.192881167E-2,-4.065036774E-2
3.572738079E0,-1.551747322E-2,-1.075636595E-2,3.570365906E-2
3.577779382E0,2.858486772E-2,-2.498350292E-2,1.759052277E-2
3.582820736E0,-2.257193625E-2,-1.998380199E-2,3.192901611E-3
3.587999225E0,1.567719877E-2,1.815318316E-2,1.266765594E-2
3.593040579E0,-3.457948565E-3,-1.993966848E-2,1.375007629E-2
3.598081882E0,6.150990725E-3,-4.164207727E-3,-4.179000854E-3
3.603123236E0,-9.496405721E-3,1.364938915E-2,-3.621482849E-2
3.608164590E0,-2.290874720E-3,-3.104239702E-3,1.872348785E-2
3.613205892E0,-1.884843409E-2,-6.679788232E-3,7.877349854E-3
3.618343548E0,-5.625903606E-3,2.068214118E-2,-2.425765991E-2
3.623384902E0,-1.154322922E-2,-4.419881850E-3,-1.336479187E-2
3.628426204E0,-1.142092049E-2,-1.632463932E-2,8.126258850E-3
3.633467559E0,-6.098896265E-4,-2.802639082E-2,2.120018005E-3
3.638508913E0,5.385667086E-3,-2.783031389E-2,9.228706360E-3
3.643550215E0,6.528362632E-3,1.060552895E-2,-1.536369324E-3
3.648789069E0,-1.028926671E-2,8.237440139E-3,3.885936737E-2
3.653830371E0,-8.886635303E-3,-6.043832749E-3,-1.609897614E-2
3.658871725E0,-3.972020745E-2,-9.361401200E-3,3.035831451E-2
3.663913027E0,-6.157755852E-3,2.161223441E-2,1.704025269E-2
3.668954382E0,-5.951404572E-3,8.433129638E-3,-1.279258728E-2
3.673995684E0,7.138133049E-3,1.423728839E-2,-1.506233215E-2
3.679184225E0,-4.851773381E-3,7.032349706E-3,2.900886536E-2
3.684225527E0,1.661969721E-2,4.587303847E-3,-4.724788666E-2
3.689266882E0,-1.564054191E-2,-2.048202977E-2,3.985118866E-2
3.694308184E0,-1.440039277E-2,-9.528968483E-3,-4.006004333E-2
3.699349538E0,9.397447109E-3,3.577642515E-2,7.782936096E-3
3.704390840E0,-2.158848941E-2,8.277580142E-3,3.028583527E-2
3.709598809E0,7.150501013E-3,1.653870195E-2,2.647209167E-2
3.714640163E0,-1.661252975E-2,1.050221547E-2,-1.294422150E-2
3.719681517E0,-2.249056101E-2,1.058416814E-2,3.792762756E-3
3.724722819E0,7.390111685E-3,2.120142058E-2,4.948616028E-3
3.729764173E0,-7.983610034E-3,-4.986830056E-3,-1.171875000E-2
3.734805475E0,1.829148829E-2,3.062343970E-2,-3.181266785E-2
3.739996465E0,3.497302532E-4,5.438957363E-3,5.397129059E-2
3.745037819E0,6.207793951E-3,-4.788190126E-4,-1.655769348E-2
3.750079173E0,1.456275582E-3,6.764791906E-4,2.515220642E-2
3.755120475E0,2.043098211E-4,-5.278870463E-3,-9.503364563E-3
3.760161829E0,-6.820857525E-3,1.742507890E-2,-7.046699524E-3
3.765203184E0,-4.120904207E-2,1.494448259E-2,1.676654816E-2
3.770394121E0,-7.528662682E-3,-1.140222698E-2,-3.207015991E-2
3.775435475E0,3.171771765E-3,-1.395233348E-2,6.559181213E-2
3.780476829E0,-3.980904818E-3,-1.506197453E-2,-5.016803741E-2
3.785518132E0,7.256567478E-4,6.431575865E-3,-2.362060547E-2
3.790559486E0,7.716745138E-3,-3.171947971E-2,-2.223777771E-2
3.795600788E0,-7.633373141E-3,-1.951123029E-2,3.496265411E-2
3.800791309E0,-4.422962666E-4,1.513555646E-2,-5.203437805E-2
3.805832663E0,9.011656046E-3,3.171984106E-3,-1.478004456E-2
3.810874017E0,-1.835621893E-2,-1.819363236E-2,-1.465606689E-2
3.815915319E0,1.030278206E-2,-2.280430868E-2,-1.809787750E-2
3.820956673E0,2.803291380E-2,-1.676399633E-2,-4.881858826E-3
3.825997975E0,1.616850495E-3,1.076013222E-2,-2.466201782E-3
3.831173079E0,-4.441976547E-3,2.258993685E-2,-4.639339447E-2
3.836214434E0,-1.868411899E-2,-2.158248425E-2,-6.811141968E-3
3.841255788E0,1.707798243E-2,-1.322822273E-2,-3.191947937E-3
3.846297090E0,-7.930025458E-3,-4.892185330E-3,-2.692127228E-2
3.851338444E0,1.705341041E-2,3.206024691E-2,-7.691383362E-3
3.856379746E0,1.567149162E-2,-6.200231612E-3,2.206611633E-2
3.861580371E0,1.311142743E-2,4.018976539E-2,1.000308990E-2
3.866621725E0,1.302798092E-2,1.144051179E-2,2.298641205E-2
3.871663079E0,5.844578147E-3,8.932195604E-3,-9.274482727E-3
3.876704382E0,5.847379565E-3,-5.779825151E-4,3.051757812E-4
3.881745736E0,-1.916140318E-4,3.633851558E-2,-3.176593781E-2
3.886787038E0,3.887590766E-2,7.597189397E-3,2.075862885E-2
3.891981465E0,-7.690891623E-3,9.897790849E-3,1.583480835E-2
3.897022819E0,-2.063980699E-2,2.753391862E-3,2.639770508E-3
3.902064173E0,-2.408237755E-2,-5.570624024E-3,1.568126678E-2
3.907105475E0,-3.340967000E-2,2.888331190E-2,3.930473328E-2
3.912146829E0,-2.365463972E-2,-5.711518228E-3,3.066349030E-2
3.917188184E0,-1.390358806E-2,-3.274481744E-3,-4.204463959E-2
3.922379642E0,1.813039184E-3,-1.392268762E-2,-9.039115906E-2
3.927420996E0,1.726496220E-2,1.352534071E-2,3.007888794E-3
3.932462350E0,-1.022341847E-2,6.274819374E-3,-4.690456390E-2
3.937503652E0,-6.522819400E-3,3.886118531E-3,-1.681900024E-2
3.942545007E0,3.040389717E-2,2.705760300E-3,-4.755973816E-2
3.947586309E0,9.933367372E-3,1.447024196E-2,-3.766155243E-2
3.952777298E0,2.750456333E-3,1.307041571E-2,2.560329437E-2
3.957818600E0,-1.147337258E-2,-1.320767403E-2,5.196571350E-3
3.962860007E0,-1.024243236E-2,-1.303026080E-2,1.591682434E-3
3.967901309E0,-4.089355469E-3,-8.155696094E-3,1.345634460E-2
3.972942663E0,-1.474481821E-2,2.159393206E-2,2.284717560E-2
3.977983965E0,-1.479193568E-3,-1.301639527E-2,2.147006989E-2
3.983174694E0,-9.568050504E-3,1.669383422E-2,4.623603821E-2
3.988216048E0,2.857162058E-2,-1.196307316E-2,1.904487610E-3
3.993257402E0,1.756623387E-2,-2.256514132E-2,6.638526917E-3
3.998298704E0,-3.881797194E-3,-3.788231313E-2,-5.416870117E-4
4.003340059E0,2.243594825E-2,3.916740417E-3,4.215240479E-3
4.008381361E0,-6.178885698E-3,-1.991023123E-2,5.369186401E-3
4.013571100E0,4.509255290E-3,-6.664644927E-3,5.741119385E-4
4.018612454E0,-4.952818155E-3,2.307323366E-2,-4.337787628E-2
4.023653809E0,-3.354740143E-2,-4.293218255E-3,1.993370056E-2
4.028695111E0,2.416402102E-3,1.589731872E-2,-4.199600220E-2
4.033736465E0,-2.302899957E-3,-7.847093046E-3,-1.551342010E-2
4.038777819E0,7.270336151E-3,-1.373277977E-2,5.707073212E-2
4.043968757E0,-9.391456842E-3,6.742998958E-4,-2.298450470E-2
4.049010059E0,1.692105830E-2,-5.568824708E-4,-1.210117340E-2
4.054051465E0,-1.043385267E-2,-1.728147268E-3,4.382610321E-2
4.059092767E0,-8.193254471E-4,-2.553154901E-2,-2.861022949E-3
4.064134121E0,1.109103858E-2,-5.171298981E-4,-1.115322113E-2
4.069175423E0,1.585353911E-2,-1.960716769E-2,7.944107056E-3
4.074365371E0,1.933841407E-2,-3.802917898E-3,4.316329956E-3
4.079406725E0,3.707134724E-2,-1.090972871E-2,-2.897548676E-2
4.084448079E0,9.417757392E-3,1.151300967E-3,-6.911754608E-2
4.089489382E0,-1.451922953E-2,1.103911549E-3,-4.241275787E-2
4.094530736E0,-9.491920471E-3,-1.327376813E-2,4.821109772E-2
4.099572038E0,-3.918409348E-2,5.854543298E-3,2.673149109E-3
4.104759434E0,2.166497707E-2,-2.498180047E-2,1.452827454E-2
4.109800788E0,3.616213799E-3,7.258735597E-3,7.279396057E-3
4.114842142E0,-1.652842760E-2,2.376386896E-2,-6.048107147E-2
4.119883444E0,1.095323265E-2,9.875223041E-4,7.723808289E-3
4.124924798E0,7.401779294E-3,-1.329552382E-3,1.241302490E-2
4.129966100E0,1.929596066E-2,-2.395091206E-2,1.824951172E-2
4.135159694E0,2.515372634E-2,-1.296652481E-2,6.323432922E-2
4.140201048E0,-4.945695400E-5,-1.041937619E-2,-2.619743347E-3
4.145242402E0,1.417848468E-2,-1.734205708E-2,1.759433746E-2
4.150283704E0,1.292423904E-2,-2.560104802E-2,3.194808960E-3
4.155325059E0,2.942021191E-2,2.456206456E-2,-1.346015930E-2
4.160366361E0,1.975120604E-2,-8.861090988E-3,1.991081238E-2
4.165549746E0,5.226299167E-3,-1.352186501E-2,-8.762359619E-3
4.170591100E0,2.858877182E-3,1.629903167E-2,-7.500648499E-3
4.175632454E0,7.560193539E-3,2.575712278E-2,-3.238105774E-2
4.180673757E0,-1.264269650E-2,9.960029274E-3,4.709243774E-3
4.185715111E0,-1.140084863E-2,6.326988339E-3,-1.077175140E-2
4.190756413E0,2.680566907E-2,-1.036560163E-2,-5.225372314E-2
4.195956152E0,3.935158253E-3,1.948207244E-2,1.825904846E-2
4.200997507E0,5.219832063E-3,-7.907889783E-3,1.454544067E-2
4.206038861E0,8.687868714E-3,-6.236024201E-4,-1.645755768E-2
4.211080163E0,-1.157647371E-2,2.198912203E-2,-4.442214966E-3
4.216121517E0,3.457963467E-4,1.941876113E-2,3.241348267E-2
4.221162819E0,1.588709652E-2,6.232064217E-3,-7.050514221E-3
4.226353496E0,6.306633353E-3,-1.283770055E-2,1.557636261E-2
4.231394850E0,8.629739285E-3,1.813905686E-2,-2.731227875E-2
4.236436204E0,2.647744119E-2,2.156577259E-2,-2.826976776E-2
4.241477507E0,2.031733096E-2,-1.191586256E-3,-1.140594482E-2
4.246518861E0,-2.142357826E-2,-1.043671742E-2,2.907562256E-2
4.251560163E0,7.286965847E-3,-1.857220381E-2,-8.592605591E-4
4.256749069E0,-1.293921471E-2,3.083702177E-3,-3.529644012E-2
4.261790423E0,-4.439547658E-3,3.098122776E-3,6.595802307E-2
4.266831777E0,-9.205520153E-3,-1.955808327E-2,-1.107215881E-3
4.271873079E0,9.927377105E-3,7.586404681E-4,1.315498352E-2
4.276914434E0,7.573127747E-3,1.927118748E-3,-7.144927979E-3
4.281955736E0,-3.044627607E-2,1.140083000E-2,4.517650604E-2
4.287146048E0,-6.410926580E-3,-2.958860248E-3,6.261634827E-2
4.292187402E0,7.945597172E-4,-1.841183752E-2,-1.392173767E-2
4.297228757E0,3.172130883E-2,-1.563806087E-3,1.232528687E-2
4.302270059E0,-1.016598940E-2,1.491037011E-2,1.934814453E-2
4.307311413E0,-6.492510438E-3,7.622785866E-3,-1.763439178E-2
4.312352715E0,-8.942812681E-3,3.359971195E-2,-1.867675781E-2
4.317532715E0,5.384907126E-3,7.097035646E-3,-1.733398438E-2
4.322574069E0,1.484236121E-2,1.066647470E-2,-8.874893188E-3
4.327615423E0,-3.123715520E-3,4.575811327E-3,1.138973236E-2
4.332656725E0,7.617607713E-3,1.996761560E-2,4.811573029E-2
4.337698027E0,4.078564048E-2,4.348419607E-3,-6.512165070E-2
4.342739382E0,2.970430255E-2,4.403691739E-3,-1.706981659E-2
4.347927767E0,-7.284238935E-3,8.989498019E-4,2.108287811E-2
4.352969121E0,-4.770472646E-3,-5.021960661E-2,-9.973526001E-3
4.358010423E0,-1.777036488E-2,3.662601113E-3,-2.533149719E-2
4.363051777E0,-9.936988354E-4,2.484440804E-3,2.120208740E-2
4.368093132E0,3.702293336E-2,1.910627633E-2,-3.717422485E-2
4.373134434E0,9.779781103E-4,1.545010135E-2,4.705429077E-3
4.378295267E0,-1.325665414E-2,1.177232713E-2,1.060581207E-2
4.383336621E0,-2.481743693E-3,1.274590939E-2,-1.360893250E-3
4.388377975E0,-4.836171865E-3,-3.923956305E-3,-7.287979126E-3
4.393419277E0,2.017335594E-2,1.156283915E-2,8.213043213E-3
4.398460632E0,-1.578256488E-2,-4.489049315E-4,2.477264404E-2
4.403501934E0,5.806148052E-3,7.309876382E-4,-3.125762939E-2
4.408709225E0,-1.197852194E-2,7.759325206E-3,-7.241249084E-3
4.413750527E0,-3.538087010E-3,5.813576281E-4,9.447097778E-3
4.418791882E0,-1.781392097E-2,-1.125992462E-2,2.124691010E-2
4.423833184E0,2.400991321E-2,3.395608813E-2,-3.089904785E-4
4.428874538E0,-1.311381161E-2,7.607754320E-3,2.226066589E-2
4.433915840E0,-2.131937444E-2,-1.376827806E-2,1.494789124E-2
4.439110215E0,-1.272101700E-2,1.243887842E-2,1.363658905E-2
4.444151517E0,-7.812082767E-3,-1.150946692E-2,2.833366394E-3
4.449192871E0,-1.843702793E-2,-1.609826460E-2,-3.638553619E-2
4.454234173E0,1.616187394E-2,9.044110775E-3,9.051322937E-3
4.459275527E0,6.524950266E-3,2.563783154E-2,-1.953029633E-2
4.464316829E0,8.794754744E-3,-1.381032169E-2,-5.115509033E-3
4.469520579E0,-7.907181978E-3,-6.580673158E-3,-4.426860809E-2
4.474561934E0,-3.038333356E-2,-7.646575570E-3,5.468559265E-2
4.479603288E0,-3.369317949E-2,-1.682214439E-3,-4.072189331E-4
4.484644590E0,4.569992423E-3,6.712097675E-3,-5.154609680E-3
4.489685944E0,4.506647587E-3,-2.423852310E-2,4.002189636E-2
4.494727298E0,6.870403886E-3,-2.043313533E-2,2.187347412E-2
4.499925527E0,1.631517708E-2,1.066021994E-2,-8.002281189E-3
4.504966882E0,1.858052611E-2,1.083578914E-3,6.316184998E-3
4.510008236E0,-5.406886339E-3,1.010876149E-3,-3.887081146E-2
4.515049538E0,1.361654699E-2,-2.650350332E-3,-4.567527771E-2
4.520090892E0,-1.381509006E-2,-2.636984363E-2,-2.866649628E-2
4.525132246E0,-4.329022765E-2,9.573802352E-3,3.927707672E-2
4.530317767E0,-2.041545510E-2,1.309891790E-2,2.129554749E-3
4.535359121E0,-4.598215222E-3,8.254364133E-3,-1.688957214E-2
4.540400475E0,3.930965066E-2,-6.001867354E-3,-2.743911743E-2
4.545441777E0,4.511356354E-3,1.301446930E-2,-2.602291107E-2
4.550483132E0,9.362846613E-4,2.487543598E-2,-2.699375153E-2
4.555524434E0,-1.448686421E-2,4.387751222E-3,-1.826286316E-3
4.560719954E0,1.292596757E-2,2.579813078E-2,-2.200222015E-2
4.565761257E0,4.452481866E-3,4.191223532E-3,-2.815246582E-3
4.570802611E0,2.101778984E-2,-1.021115482E-2,-3.961372375E-2
4.575843913E0,-1.003898680E-2,2.539129928E-2,1.098632812E-3
4.580885267E0,-1.349245012E-2,1.576879248E-2,-2.266502380E-2
4.585926569E0,-1.092696190E-2,-3.782332689E-2,2.859878540E-2
4.591116725E0,2.601248026E-2,-1.916792244E-3,-2.271366119E-2
4.596158079E0,4.364639521E-3,4.365630448E-4,5.980491638E-3
4.601199434E0,3.114283085E-3,3.961436450E-4,1.186847687E-2
4.606240736E0,2.322877944E-2,-6.668414921E-3,-1.554870605E-2
4.611282090E0,-1.908212900E-3,1.108951867E-2,5.465698242E-2
4.616323392E0,6.473511457E-3,-8.121725172E-3,1.025485992E-2
4.621513652E0,-3.757996857E-2,1.301199198E-3,5.292797089E-2
4.626555007E0,7.929652929E-4,-1.307743788E-2,1.922988892E-2
4.631596361E0,-1.003284752E-2,-2.720729634E-2,3.450775146E-2
4.636637663E0,-4.062280059E-3,3.915738314E-3,-7.350921631E-3
4.641679017E0,-2.891986072E-2,-1.146555319E-2,1.409053802E-2
4.646720319E0,-3.108029068E-2,6.252862513E-4,2.941417694E-2
4.651913652E0,-2.844646573E-2,-5.329255015E-3,3.748416901E-2
4.656955007E0,1.930151880E-2,1.848320290E-2,-6.378841400E-2
4.661996361E0,3.321468830E-5,-4.327766597E-3,-2.168750763E-2
4.667037663E0,-4.821300507E-3,-7.841393352E-3,-4.878997803E-3
4.672079017E0,1.773421466E-2,1.462525874E-2,1.535224915E-2
4.677120319E0,-3.699843585E-2,1.604035497E-4,-2.164840698E-4
4.682310319E0,6.148487329E-3,-3.494959325E-3,-1.921749115E-2
4.687351673E0,-2.829617262E-2,1.428755745E-2,-1.668262482E-2
4.692393027E0,1.348528266E-2,1.064534858E-2,-1.298046112E-2
4.697434329E0,8.622542024E-3,-5.981847644E-3,8.507728577E-3
4.702475684E0,1.335266232E-2,-9.505160153E-3,-3.788375854E-2
4.707517038E0,1.312509179E-3,-2.123857662E-2,1.112937927E-2
4.712706204E0,-1.176361740E-2,2.654649317E-3,5.973529816E-2
4.717747559E0,7.390677929E-3,-9.175054729E-4,3.429508209E-2
4.722788913E0,2.987104654E-2,2.758369595E-2,-1.231288910E-2
4.727830215E0,-2.498908341E-2,-3.336239234E-2,1.985836029E-2
4.732871569E0,-5.854010582E-3,7.364690304E-3,1.018905640E-2
4.737912871E0,2.156519890E-2,1.803257689E-2,-5.284595490E-2
4.743102038E0,8.346557617E-3,3.697484732E-3,3.073883057E-2
4.748143392E0,1.537768543E-2,1.085920632E-2,-2.775192261E-3
4.753184746E0,-2.745765448E-2,-2.257529646E-3,1.506519318E-2
4.758226048E0,-1.168484986E-2,1.789052784E-2,-4.325962067E-2
4.763267402E0,3.827512264E-3,2.211399376E-3,-1.676940918E-2
4.768308757E0,-4.492893815E-3,1.418826729E-2,1.425266266E-2
4.773499954E0,6.313905120E-3,3.308955580E-2,1.294708252E-2
4.778541309E0,2.175363898E-2,-1.354587823E-2,1.046371460E-2
4.783582663E0,-4.506170750E-3,1.609314233E-2,1.987934113E-2
4.788623965E0,7.357671857E-3,2.547432482E-2,-1.354503632E-2
4.793665319E0,-2.244968712E-2,-1.963850111E-3,3.407764435E-2
4.798706673E0,-1.157249510E-2,2.419676259E-2,2.785682678E-2
4.803896361E0,8.715420961E-3,9.784042835E-3,2.762413025E-2
4.808937715E0,-7.933780551E-3,-1.282545179E-2,-2.605342865E-2
4.813979069E0,1.469966769E-2,1.092153043E-2,2.927780151E-4
4.819020371E0,-2.229459584E-2,-1.396983862E-2,3.592300415E-2
4.824061725E0,6.474941969E-3,5.035638809E-3,-2.376556396E-2
4.829103027E0,2.780362964E-3,-1.278324798E-2,-1.169013977E-2
4.834256986E0,4.024535418E-3,1.537367702E-3,7.412910461E-3
4.839298340E0,6.469503045E-3,2.294535935E-2,1.566696167E-2
4.844339642E0,1.248259842E-2,1.915582269E-2,4.847526550E-3
4.849380996E0,2.200978994E-2,-2.496211231E-2,-5.101490021E-2
4.854422350E0,1.111099124E-2,-3.386739641E-3,9.985923767E-3
4.859463652E0,5.001172423E-3,-2.226906270E-2,4.078388214E-2
4.864691725E0,-1.752702892E-2,-1.731873676E-2,8.375167847E-3
4.869733079E0,8.878245950E-3,-3.376117721E-2,-1.069641113E-2
4.874774434E0,-2.094125748E-2,1.407026872E-2,-3.436183929E-2
4.879815736E0,-1.950085163E-2,-1.461788267E-2,2.293682098E-2
4.884857090E0,1.151746511E-2,-1.326818392E-2,-1.008987427E-3
4.889898444E0,3.037399054E-2,1.420060545E-2,-1.525402069E-2
4.895053913E0,-6.726115942E-3,3.354128450E-3,-1.869106293E-2
4.900095267E0,2.806261182E-3,-9.673513472E-3,-1.259613037E-2
4.905136569E0,-1.387180388E-2,-9.733475745E-3,1.482582092E-2
4.910177923E0,5.195856094E-3,-3.189593554E-5,2.182960510E-2
4.915219277E0,-2.211403847E-2,3.623150289E-3,3.708839417E-2
4.920260579E0,1.773819327E-3,-1.534551382E-2,1.658821106E-2
4.925451361E0,-1.777186990E-3,1.097992435E-2,1.526355743E-2
4.930492715E0,3.118291497E-3,-9.755827487E-4,-2.880859375E-2
4.935534017E0,1.981928945E-3,3.668859601E-3,-1.431560516E-2
4.940575371E0,1.624427736E-2,-2.129035071E-2,-2.013587952E-2
4.945616725E0,-2.843663096E-3,3.359026462E-2,6.163597107E-3
4.950658027E0,-1.583345234E-2,1.065339893E-2,1.205158234E-2
4.955882923E0,3.429198265E-2,2.126815543E-2,-3.318119049E-2
4.960924277E0,-2.052739263E-2,-1.920065656E-2,1.579475403E-2
4.965965632E0,-1.429155469E-3,1.164115965E-3,-3.066062927E-2
4.971006934E0,3.070437908E-2,2.022349462E-2,4.777908325E-4
4.976048288E0,-3.944799304E-3,5.635090172E-3,1.710224152E-2
4.981089590E0,9.257405996E-3,2.111946046E-2,-6.793022156E-3
4.986281152E0,7.886260748E-3,-1.821194217E-2,5.502605438E-2
4.991322507E0,1.959338784E-3,2.579767257E-2,1.180839539E-2
4.996363861E0,7.555037737E-4,-1.584592834E-2,-1.323127747E-2
5.001405163E0,-5.241036415E-3,4.439849406E-3,-4.044055939E-2
5.006446517E0,9.107857943E-3,-9.811151773E-3,5.031585693E-3
5.011487819E0,3.041431308E-3,-2.381671220E-3,-1.163673401E-2
5.016671829E0,-2.775900066E-2,-1.133512706E-3,-6.787300110E-3
5.021713184E0,1.177176833E-2,1.200726628E-2,-1.504230499E-2
5.026754538E0,-3.575845063E-2,2.443883568E-3,1.952934265E-2
5.031795840E0,1.672354341E-2,-8.175138384E-3,1.342678070E-2
5.036837194E0,9.431749582E-3,4.920862615E-3,-1.756763458E-2
5.041878496E0,1.283860207E-2,-9.436223656E-3,-1.148414612E-2
5.047040215E0,-1.468390226E-3,-1.290661469E-2,-1.138782501E-2
5.052081569E0,8.097797632E-3,-2.112531289E-2,-3.267192841E-2
5.057122871E0,2.117007971E-3,-1.145811006E-2,1.629829407E-2
5.062164225E0,-4.541116953E-2,1.589282602E-2,1.022338867E-2
5.067205579E0,-1.404711604E-2,-2.569446340E-2,3.151988983E-2
5.072246882E0,-7.094144821E-4,-1.633673906E-3,-1.387500763E-2
5.077473965E0,-1.841199398E-2,-7.411409169E-3,3.137779236E-2
5.082515267E0,2.220195532E-2,-1.564795151E-2,-3.539752960E-2
5.087556621E0,2.436627448E-2,1.585856080E-5,4.093170166E-3
5.092597923E0,1.463524997E-2,1.900825277E-2,-3.394889832E-2
5.097639225E0,2.398915589E-2,3.423951566E-3,-5.160331726E-3
5.102680579E0,7.057636976E-3,-1.205807924E-2,1.626110077E-2
5.107856413E0,-1.670365036E-2,6.982233375E-3,1.850128174E-2
5.112897767E0,-1.888889074E-2,-2.614095807E-3,-8.971214294E-3
5.117939069E0,7.346913218E-3,-9.755279869E-3,3.504943848E-2
5.122980423E0,1.295134425E-3,-4.882819951E-3,4.782295227E-2
5.128021725E0,-2.382904291E-3,8.057452738E-3,1.772785187E-2
5.133063079E0,-1.772631705E-2,1.990801468E-2,8.079528809E-3
5.138250527E0,3.854408860E-3,-3.485381603E-2,8.011817932E-3
5.143291882E0,1.812130213E-4,1.172207296E-2,2.576160431E-2
5.148333184E0,4.539205134E-2,-3.828067333E-3,-6.522178650E-3
5.153374538E0,-7.246479392E-3,1.044290140E-2,2.678871155E-2
5.158415840E0,1.153677702E-3,-1.330672577E-2,3.013038635E-2
5.163457194E0,1.307401061E-2,-1.444831491E-2,4.936218262E-3
5.168640944E0,-1.662252843E-2,-5.998943001E-3,9.648323059E-3
5.173682246E0,-1.181052625E-2,-1.783847809E-2,1.194286346E-2
5.178723548E0,-2.123974264E-2,1.922185719E-2,-3.566646576E-2
5.183764902E0,6.177738309E-3,3.345907107E-2,1.807975769E-2
5.188806257E0,1.678988338E-2,-1.193960384E-2,-4.027080536E-2
5.193847559E0,-1.893079281E-2,5.989830941E-3,5.033493042E-2
5.199049538E0,-3.540168703E-2,3.605823964E-3,-2.372646332E-2
5.204090892E0,3.004685044E-3,-9.578071535E-3,1.566886902E-2
5.209132194E0,1.960808039E-2,-2.331230789E-3,-1.059246063E-2
5.214173548E0,7.696270943E-3,-1.187041402E-3,2.631759644E-2
5.219214902E0,-1.485773921E-2,-5.862172693E-3,-5.970001221E-3
5.224256204E0,2.224224806E-2,8.349526674E-3,-4.630184174E-2
5.229434069E0,3.132760525E-3,-1.543471962E-2,-1.146984100E-2
5.234475423E0,-2.436786890E-2,1.931010559E-2,2.544498444E-2
5.239516777E0,2.812302113E-2,-1.174551249E-2,6.228446960E-3
5.244558079E0,1.854209602E-2,2.758781612E-2,-2.114009857E-2
5.249599434E0,1.722562313E-2,8.342184126E-3,-3.284072876E-2
5.254640736E0,1.821839809E-2,1.237291843E-3,-3.613090515E-2
5.259853704E0,3.229324520E-2,-8.207563311E-3,-1.920223236E-2
5.264895059E0,-1.313674450E-2,1.790266111E-2,4.509639740E-2
5.269936413E0,2.133911848E-2,2.484462783E-2,-3.978729248E-3
5.274977715E0,-1.695063710E-2,1.517600194E-2,-3.843307495E-4
5.280019069E0,3.067472577E-2,6.724320352E-3,-1.463317871E-2
5.285060371E0,2.690705657E-2,1.138288528E-2,3.062343597E-2
5.290252454E0,2.198554575E-2,-1.657124609E-3,4.240036011E-3
5.295293809E0,-1.978918910E-3,5.523711443E-3,5.290317535E-2
5.300335163E0,1.229096949E-2,7.789164782E-3,4.950523376E-3
5.305376465E0,-3.174424171E-3,1.491611451E-2,2.747917175E-2
5.310417819E0,-2.925264835E-2,-1.491408795E-2,5.219364166E-2
5.315459121E0,5.813539028E-4,2.687394992E-2,2.800273895E-2
5.320648809E0,1.372143626E-2,-2.195278183E-2,2.420806885E-2
5.325690163E0,1.755014062E-3,4.401657730E-3,-1.043796539E-2
5.330731517E0,-1.602444053E-2,-2.162173018E-2,2.172088623E-2
5.335772819E0,6.805986166E-3,-2.294145525E-3,-2.359294891E-2
5.340814173E0,-2.482831478E-4,-6.855864078E-3,9.864807129E-3
5.345855475E0,1.276765764E-2,-1.391171664E-2,2.403450012E-2
5.351046257E0,1.031236351E-2,-1.140558347E-2,1.076793671E-2
5.356087611E0,4.105612636E-2,-2.211510390E-2,-4.514694214E-2
5.361128965E0,-1.745985448E-2,1.492879167E-2,4.787540436E-2
5.366170267E0,1.005645096E-2,1.838053763E-2,5.905151367E-3
5.371211621E0,1.963059604E-2,7.576309144E-3,1.536083221E-2
5.376252923E0,-2.577136457E-2,8.663453162E-3,8.104324341E-3
5.381409746E0,-1.774832606E-3,2.766256034E-2,-1.690483093E-2
5.386451100E0,-2.672837675E-2,2.517324314E-2,-1.438808441E-2
5.391492402E0,1.168334484E-2,-7.116917521E-3,4.036998749E-2
5.396533757E0,-1.681663096E-2,-3.609772772E-3,1.984214783E-2
5.401575111E0,7.104516029E-3,-1.784438267E-2,-3.377151489E-2
5.406616413E0,-2.024698257E-2,-8.231788874E-3,6.893157959E-3
5.411825423E0,-1.764915884E-2,5.856156349E-5,3.273010254E-3
5.416866777E0,1.820841432E-2,1.902437955E-2,1.512432098E-2
5.421908079E0,1.679095626E-2,-8.489370346E-3,-3.251361847E-2
5.426949434E0,-7.077842951E-3,4.556450993E-3,5.921363831E-2
5.431990788E0,2.379834652E-3,-1.088258252E-2,2.546405792E-2
5.437032090E0,-2.500991523E-2,1.664360985E-2,2.050018311E-2
5.442237715E0,1.566177607E-2,5.938135087E-3,-5.212306976E-2
5.447279069E0,-2.598904073E-2,2.255844325E-2,-4.177093506E-3
5.452320423E0,-8.810311556E-4,1.285609975E-2,3.386497498E-2
5.457361725E0,2.058321238E-2,7.052347064E-4,-4.480934143E-2
5.462403079E0,1.217465103E-2,-8.736006916E-3,-1.673698425E-3
5.467444434E0,-6.853684783E-3,-3.871332854E-3,3.397369385E-2
5.472634121E0,-1.911729574E-3,-1.332787797E-2,2.810478210E-3
5.477675423E0,5.256876349E-3,4.561379552E-3,3.485679626E-2
5.482716829E0,4.103064537E-3,2.813720331E-2,-9.379386902E-3
5.487758132E0,3.138759732E-2,1.139117777E-2,-5.736351013E-3
5.492799486E0,2.178996801E-4,-1.595512033E-2,1.331520081E-2
5.497840788E0,-1.889157295E-2,-1.338063180E-2,-2.005386353E-2
5.503031777E0,1.212006807E-2,5.724843591E-3,6.244659424E-3
5.508073132E0,9.591758251E-3,1.875675097E-2,-3.538036346E-2
5.513114486E0,3.331856430E-2,-1.224078238E-2,-5.290126801E-2
5.518155788E0,1.876217127E-2,2.224216610E-2,-3.226852417E-2
5.523197142E0,3.998576105E-2,1.605398208E-2,-1.180839539E-2
5.528238444E0,6.343841553E-3,-1.019689813E-2,1.659393311E-4
5.533430475E0,2.540306747E-2,-6.483860314E-3,-3.902816772E-2
5.538471829E0,5.051702261E-3,1.132215559E-2,2.543544769E-2
5.543513184E0,-4.570096731E-3,1.636523753E-3,7.406234741E-3
5.548554486E0,3.783017397E-3,7.522478700E-3,-6.629657745E-2
5.553595840E0,1.560305059E-2,3.478601575E-4,-4.555320740E-2
5.558637142E0,2.484798431E-3,2.878883854E-2,-7.249069214E-2
5.563827871E0,-9.931921959E-4,-2.963545918E-2,1.244544983E-2
5.568869225E0,-9.195655584E-3,-2.056151628E-3,-1.735019684E-2
5.573910579E0,-2.334584296E-2,1.217558235E-2,-2.670764923E-2
5.578951882E0,2.794815600E-2,3.697957471E-2,-2.411079407E-2
5.583993236E0,-1.984687150E-2,-1.167383045E-3,8.159637451E-3
5.589034590E0,-2.084374428E-2,-3.556181863E-2,-1.922607422E-2
5.594218757E0,-6.443738937E-3,1.339443028E-2,3.200626373E-2
5.599260111E0,-6.260901690E-3,-1.007407904E-3,1.273822784E-2
5.604301465E0,4.506662488E-3,-2.003992349E-2,-6.371498108E-3
5.609342767E0,1.275748014E-2,2.408839017E-2,-4.907894135E-2
5.614384121E0,5.472525954E-3,-1.014444977E-3,-6.173515320E-2
5.619425423E0,1.139089465E-2,2.031170949E-2,-4.102802277E-2
5.624615423E0,-2.069319785E-2,1.098681241E-3,1.276397705E-2
5.629656777E0,2.347734571E-2,-3.645859659E-3,4.116439819E-2
5.634698132E0,7.944285870E-3,-2.335861325E-3,1.627922058E-3
5.639739382E0,2.695974708E-2,-1.304368675E-2,-1.620101929E-2
5.644780788E0,4.245072603E-3,9.323284030E-5,2.938270569E-3
5.649822090E0,1.730084419E-2,1.067146659E-4,1.835536957E-2
5.655007871E0,-2.797915041E-2,-1.650597900E-2,1.582717896E-2
5.660049225E0,-1.101392508E-2,1.574116945E-2,7.152175903E-2
5.665090579E0,2.039372921E-3,-3.307313100E-2,-2.716064453E-3
5.670131882E0,2.087128162E-2,3.959644586E-3,-3.120231628E-2
5.675173236E0,7.709071040E-3,-2.453837916E-2,-1.787567139E-2
5.680214538E0,-2.548390627E-2,1.134069636E-2,-2.009963989E-2
5.685408704E0,-1.109825075E-2,1.479715109E-2,2.520084381E-2
5.690450059E0,-2.898424864E-4,-1.035896316E-2,-3.320884705E-2
5.695491361E0,2.165973186E-3,9.958680719E-3,2.526950836E-2
5.700532715E0,-3.738507628E-3,2.571865916E-4,3.812408447E-2
5.705574069E0,-1.442325115E-2,1.813774928E-2,9.299278259E-3
5.710615371E0,-2.847859263E-2,-6.942041218E-3,-6.217002869E-3
5.715812142E0,3.881335258E-3,2.632927150E-3,-1.447868347E-2
5.720853496E0,1.525774598E-3,-4.127144814E-2,-2.479553223E-3
5.725894850E0,1.346814632E-2,-1.837170869E-2,4.861640930E-2
5.730936152E0,3.125005960E-2,1.265114173E-2,1.733016968E-2
5.735977507E0,9.661793709E-3,-1.000776514E-2,-1.844596863E-2
5.741018809E0,-2.132615447E-2,1.030730084E-2,1.258945465E-2
5.746210111E0,-1.518289745E-2,-1.133035868E-2,1.842308044E-2
5.751251465E0,-2.693350613E-2,-1.127445325E-2,4.321193695E-2
5.756292819E0,4.276543856E-3,-8.869364858E-3,1.315879822E-2
5.761334121E0,4.163607955E-3,2.320997790E-2,-3.090095520E-2
5.766375475E0,-7.800966501E-3,1.711894944E-2,3.112030029E-2
5.771416777E0,-2.958148718E-3,-7.954448462E-3,3.323650360E-2
5.776578861E0,-2.433951199E-2,-4.284150898E-3,3.266334534E-3
5.781620215E0,1.030810177E-2,1.941784844E-2,7.988929749E-3
5.786661517E0,-6.458356977E-3,5.121022463E-3,1.029777527E-2
5.791702871E0,-5.032558739E-2,-1.406707987E-2,-4.040718079E-3
5.796744225E0,3.556062281E-2,3.932528198E-3,-2.063655853E-2
5.801785527E0,-1.108419895E-2,2.043915913E-2,1.397991180E-2
5.807003913E0,4.469896853E-2,1.086150855E-2,4.360198975E-3
5.812045215E0,1.670673490E-3,-1.180801168E-2,-7.551193237E-3
5.817086621E0,2.063508332E-2,-4.646752030E-3,2.339172363E-2
5.822127923E0,-1.054807007E-2,-3.509134054E-3,-5.311012268E-3
5.827169277E0,-5.760639906E-3,-1.276141405E-2,-4.921245575E-2
5.832210579E0,-1.622074842E-2,-2.565579861E-2,1.296424866E-2
5.837395319E0,1.957404613E-2,-5.369182676E-3,-2.040100098E-2
5.842436673E0,4.583597183E-4,5.328260362E-3,7.087707520E-3
5.847478027E0,-1.026079059E-2,2.818088979E-3,3.909683228E-2
5.852519329E0,3.978849947E-2,-1.154840365E-2,-1.823997498E-2
5.857560684E0,2.641646564E-2,5.063451827E-3,3.892421722E-2
5.862601986E0,-2.973164618E-2,-1.639620587E-2,-7.723808289E-3
5.867758809E0,2.161614597E-2,1.703705639E-3,5.291652679E-2
5.872800163E0,1.084059477E-4,-1.954720542E-2,-3.422927856E-2
5.877841465E0,1.918821037E-2,-1.655079424E-3,1.832008362E-2
5.882882819E0,-2.771615982E-5,2.930678427E-2,1.537322998E-3
5.887924121E0,-2.014198899E-2,1.123493537E-2,2.713203430E-3
5.892965475E0,-9.310334921E-3,-1.249575242E-2,3.879547119E-3
5.898159850E0,6.129205227E-3,2.795103379E-2,2.166271210E-2
5.903201204E0,1.353397965E-3,6.377562881E-3,4.642581940E-2
5.908242507E0,1.786719263E-2,2.402569726E-2,2.940750122E-2
5.913283861E0,2.128170431E-2,-2.374854311E-2,-1.003360748E-2
5.918325163E0,2.582916617E-2,7.397778332E-3,-5.270957947E-2
5.923366517E0,1.014681160E-2,-1.880545542E-2,-1.782512665E-2
5.928541152E0,1.726874709E-2,-2.090409398E-2,4.052543640E-2
5.933582507E0,-5.545780063E-3,2.924713865E-2,1.999568939E-2
5.938623861E0,-5.344375968E-3,-2.089403570E-2,7.952690125E-3
5.943665163E0,1.602768898E-2,4.583536834E-2,-3.130912781E-2
5.948706517E0,2.903707325E-2,-6.716057658E-3,-4.529953003E-2
5.953747819E0,-1.995462179E-2,-3.040133417E-2,4.297065735E-2
5.958986621E0,1.581729949E-2,7.757879794E-4,-6.784820557E-2
5.964027923E0,-4.385718703E-2,-1.359988749E-2,3.842353821E-2
5.969069277E0,-6.722822785E-3,-3.735715523E-2,-1.534652710E-2
5.974110579E0,1.233826578E-2,9.314786643E-3,-4.610061646E-2
5.979151934E0,1.582355797E-2,-5.103085190E-3,-2.433776855E-2
5.984193236E0,2.163049579E-2,-1.560632139E-3,-3.244876862E-2
5.989369590E0,-5.868121982E-3,-1.506760716E-3,8.422183990E-2
5.994410944E0,3.453849256E-2,8.022468537E-3,-2.219009399E-2
5.999452246E0,1.638300717E-2,2.159409225E-3,-1.844215393E-2
6.004493600E0,5.546851456E-2,-2.877810597E-2,7.843017578E-3
6.009534954E0,1.583173871E-3,-2.498696372E-2,-3.498172760E-2
6.014576257E0,-1.265683770E-2,-4.965667427E-2,-2.518844604E-2
6.019784277E0,2.070499957E-2,-2.957254648E-3,-3.804397583E-2
6.024825632E0,3.826200962E-3,-1.128439233E-2,-4.247856140E-2
6.029866986E0,9.628951550E-3,1.916471869E-3,3.389072418E-2
6.034908288E0,-8.215948939E-3,1.141683012E-2,2.529430389E-2
6.039949642E0,-2.715201676E-2,1.017474011E-2,2.627182007E-2
6.044990944E0,1.108233631E-2,-6.524045020E-3,-4.828453064E-3
6.050180319E0,-4.503861070E-3,1.473754272E-2,2.965545654E-2
6.055221673E0,-1.278083026E-2,-2.100339532E-2,-8.600234985E-3
6.060263027E0,-2.457751334E-2,-1.722563803E-2,2.354240417E-2
6.065304329E0,1.487499475E-2,5.473699421E-3,4.342079163E-3
6.070345684E0,1.485469937E-2,-7.519856095E-3,-3.488826752E-2
6.075386986E0,3.138543665E-2,3.288877383E-2,2.122783661E-2
6.080577559E0,-4.348665476E-3,1.475904137E-2,9.174346924E-3
6.085618913E0,2.839460969E-3,-2.454467490E-2,-3.603553772E-2
6.090660267E0,-7.744431496E-3,5.263920873E-3,3.196716309E-2
6.095701569E0,8.871212602E-3,-1.733342558E-2,-3.931999207E-3
6.100742923E0,4.574209452E-4,6.528019905E-3,-3.901481628E-3
6.105784225E0,3.125736117E-2,-1.254142821E-2,-1.337146759E-2
6.110974486E0,1.674439013E-2,1.009050012E-2,9.918212891E-4
6.116015840E0,-2.499306202E-2,-2.798656002E-2,5.734443665E-3
6.121057194E0,-4.489153624E-3,-8.735630661E-3,4.726123810E-2
6.126098496E0,-1.635506749E-2,-7.487021387E-3,2.919197083E-3
6.131139850E0,1.587651670E-2,-2.062134445E-4,1.833724976E-2
6.136181152E0,-9.172856808E-3,2.133544534E-3,-2.219963074E-2
6.141372194E0,-9.202703834E-3,5.639743060E-3,2.430725098E-2
6.146413548E0,1.005885005E-2,-1.122788340E-2,-4.122161865E-2
6.151454902E0,-6.576016545E-3,1.854803041E-2,-7.619857788E-3
6.156496204E0,1.245664060E-2,1.014583558E-2,3.282642365E-2
6.161537559E0,-1.612703502E-2,1.760218292E-3,4.561901093E-2
6.166578861E0,-4.114896059E-3,1.482481509E-2,-9.398460388E-3
6.171768809E0,1.508340240E-2,-3.292788565E-2,1.831054688E-4
6.176810163E0,5.456134677E-3,-2.804444730E-2,-2.595043182E-2
6.181851517E0,-1.599492133E-2,-2.653110027E-2,4.196834564E-2
6.186892819E0,-3.948062658E-4,-4.812952131E-3,-2.252006531E-2
6.191934173E0,1.019486785E-2,5.982976407E-3,2.610206604E-3
6.196975475E0,-2.077206969E-2,1.906481013E-2,1.400947571E-3
6.202165944E0,-3.252953291E-2,4.720095545E-3,-8.112907410E-3
6.207207298E0,-1.790176332E-2,-1.913809031E-2,-1.992225647E-2
6.212248652E0,9.591758251E-3,-2.465073019E-3,-2.688312531E-2
6.217289954E0,-1.073157787E-2,-8.369758725E-3,5.409240723E-3
6.222331309E0,-4.677534103E-3,-2.238361537E-2,-1.720142365E-2
6.227372663E0,-2.351301908E-2,-6.227754056E-4,4.589653015E-2
6.232563079E0,-1.853929460E-2,7.711052895E-3,1.344490051E-2
6.237604434E0,3.020852804E-3,6.472956389E-3,-1.398563385E-2
6.242645788E0,1.949487627E-2,-2.991173416E-3,3.126525879E-2
6.247687090E0,7.274210453E-3,2.069866285E-2,-2.719783783E-2
6.252728444E0,2.502943575E-2,1.096180454E-2,7.472991943E-3
6.257769746E0,-4.718288779E-3,2.545230091E-3,2.523040771E-2
6.262961361E0,-3.912465274E-2,-4.506498575E-3,-1.298809052E-2
6.268002715E0,1.611828804E-3,1.808513328E-2,2.559661865E-3
6.273044069E0,1.115266979E-2,9.607475251E-3,-2.834224701E-2
6.278085371E0,1.359026134E-2,1.690141112E-2,2.178478241E-2
6.283126725E0,1.228938997E-2,-8.271917701E-3,-2.115821838E-2
6.288168027E0,2.520045638E-2,-3.385946155E-3,2.059078217E-2
6.293357975E0,1.548752189E-2,-2.593531087E-2,-5.441093445E-2
6.298399277E0,-1.554863155E-2,3.729946911E-4,-2.884864807E-3
6.303440684E0,2.423241735E-3,3.129138798E-2,1.139354706E-2
6.308481986E0,-5.807787180E-3,8.503355086E-3,-5.328178406E-3
6.313523340E0,6.066396832E-3,-9.317863733E-3,8.969306946E-3
6.318564694E0,-1.298913360E-2,1.564106718E-2,-4.170417786E-3
6.323755111E0,4.172913730E-2,-2.364361286E-2,-1.482486725E-2
6.328796413E0,4.716068506E-3,-2.000935376E-3,2.093505859E-2
6.333837819E0,-9.550020099E-3,-3.158785403E-3,6.506919861E-3
6.338879121E0,2.510294318E-3,2.873022109E-3,4.208755493E-2
6.343920475E0,-1.171240211E-2,1.934997737E-3,1.323318481E-2
6.348961829E0,8.629336953E-3,1.262192428E-2,-1.657009125E-2
6.354152038E0,-3.185290098E-2,-1.819081604E-2,1.326274872E-2
6.359193392E0,-9.045630693E-3,-1.456586644E-2,-1.535511017E-2
6.364234746E0,3.012257814E-2,5.709234625E-3,-1.641654968E-2
6.369276048E0,1.391068101E-3,-1.454148814E-2,1.222610474E-2
6.374317402E0,-8.148714900E-3,1.056309417E-2,-4.963874817E-2
6.379358757E0,1.319563389E-2,-1.455775648E-2,-2.784824371E-2
6.384550059E0,-1.660810411E-2,-7.375482470E-3,-2.405261993E-2
6.389591413E0,1.087453961E-2,-1.538123935E-2,-1.672458649E-2
6.394632767E0,1.315958798E-2,-2.173796296E-3,1.310825348E-2
6.399674069E0,2.376554906E-2,-1.396726817E-2,-1.669406891E-2
6.404715423E0,8.126407862E-3,-1.022125781E-2,1.670265198E-2
6.409756725E0,-2.552866936E-4,8.829884231E-3,2.487754822E-2
6.414947715E0,-2.649044991E-2,-2.094957978E-2,2.229404449E-2
6.419989069E0,-9.588837624E-3,-2.184604108E-2,-4.202938080E-2
6.425030423E0,1.308430731E-2,-9.772151709E-3,-6.046295166E-3
6.430071725E0,-2.154739201E-2,1.065112650E-3,-1.906299591E-2
6.435113079E0,1.787970960E-2,-1.671965420E-2,-2.274513245E-3
6.440154382E0,2.361822128E-2,-3.205969185E-2,-3.907680511E-2
6.445344017E0,-1.342611015E-2,-4.618465900E-3,3.369998932E-2
6.450385371E0,2.593362331E-2,8.654490113E-3,-1.527595520E-2
6.455426725E0,4.477423429E-2,-8.059561253E-3,-4.009151459E-2
6.460468027E0,-6.724298000E-3,2.737559378E-3,6.566047668E-3
6.465509382E0,9.986862540E-3,-7.580295205E-4,4.927158356E-2
6.470550684E0,-1.392899454E-2,1.702684909E-2,3.816986084E-2
6.475741986E0,3.718090057E-2,-1.881336421E-2,-3.222751617E-2
6.480783340E0,1.425170898E-2,2.634182572E-3,-4.264926910E-2
6.485824694E0,4.979135096E-2,2.678580582E-3,-4.823207855E-2
6.490865996E0,-2.305079997E-2,-8.019641042E-3,2.224826813E-2
6.495907350E0,3.245860338E-3,-2.110701054E-2,3.750228882E-2
6.500948704E0,5.620628595E-3,7.458977401E-3,-1.863479614E-2
6.506138913E0,-2.536104620E-2,4.431155324E-2,-8.976936340E-3
6.511180267E0,3.423850238E-2,2.012311667E-2,-5.284881592E-2
6.516221621E0,1.861631870E-2,1.273865625E-2,-4.528141022E-2
6.521262923E0,2.447782457E-2,4.228316247E-3,2.517414093E-2
6.526304277E0,-6.633430719E-3,-8.936271071E-3,1.308536530E-2
6.531345579E0,-1.494404674E-2,1.919545233E-3,4.504585266E-2
6.536535788E0,2.943560481E-3,-2.548010647E-2,5.473136902E-3
6.541577142E0,-1.254726946E-2,2.104217559E-2,-8.824348450E-3
6.546618496E0,3.023996949E-3,-7.650963962E-3,3.638267517E-2
6.551659798E0,-1.355195045E-2,1.980185509E-3,1.945400238E-2
6.556701152E0,-1.584076881E-2,-6.335690618E-3,2.998161316E-2
6.561742454E0,-3.856614232E-3,2.461206913E-2,9.539604187E-3
6.566934017E0,3.893530369E-2,7.719993591E-4,-2.735996246E-2
6.571975371E0,-2.800713480E-2,3.171327710E-2,2.275371552E-2
6.577016725E0,7.063746452E-4,-1.248344779E-2,3.562831879E-2
6.582058027E0,1.379168034E-2,1.854242012E-2,-1.930427551E-2
6.587099382E0,6.627589464E-3,-1.012955606E-2,3.424644470E-3
6.592140684E0,7.902519405E-2,1.488684118E-2,-8.806037903E-2
6.597331465E0,-8.365824819E-3,2.913606167E-2,-1.843738556E-2
6.602372819E0,-1.658445597E-2,1.101321727E-2,2.209949493E-2
6.607414173E0,1.211212575E-2,3.814965487E-2,-1.252937317E-2
6.612455475E0,-8.984804153E-4,1.765310392E-2,6.581306458E-3
6.617496829E0,-2.699601650E-2,-2.167541906E-2,1.774787903E-3
6.622538132E0,1.717595756E-2,-2.029276639E-2,-4.812622070E-2
6.627728600E0,-7.803618908E-3,-4.588227719E-3,-3.776550293E-3
6.632769954E0,1.126633584E-2,1.583552361E-2,-1.799678802E-2
6.637811257E0,1.233445108E-2,-1.521595567E-2,2.728843689E-2
6.642852611E0,-8.038029075E-3,-3.171101213E-3,6.625461578E-2
6.647893965E0,1.237571239E-2,-3.047403693E-2,-4.356861115E-2
6.652935267E0,-1.633694768E-2,-2.965331078E-3,-2.182865143E-2
6.658068861E0,-1.253274083E-2,4.564132169E-2,1.517486572E-2
6.663110215E0,-8.736252785E-3,-2.345851064E-2,-3.900527954E-4
6.668151517E0,-9.773835540E-3,-4.270173609E-3,2.812004089E-2
6.673192871E0,-2.154429257E-2,-7.860854268E-3,2.432250977E-2
6.678234173E0,-1.181036234E-2,-1.018382609E-2,-1.626300812E-2
6.683275527E0,-2.374458313E-2,7.679589093E-3,1.831626892E-2
6.688499798E0,1.814514399E-4,1.718640327E-2,-7.966995239E-3
6.693541152E0,-5.784660578E-3,1.745589077E-3,-1.977825165E-2
6.698582507E0,8.568018675E-3,1.694247127E-3,-1.367473602E-2
6.703623809E0,2.558127046E-3,-1.387647539E-2,-3.612995148E-2
6.708665111E0,-3.453090787E-3,-1.741467416E-2,-3.701686859E-2
6.713706465E0,4.941165447E-3,1.109672338E-2,-9.389877319E-3
6.718894173E0,2.158161998E-2,-5.635939538E-3,5.720424652E-2
6.723935527E0,1.781295240E-2,1.469408721E-2,-3.591823578E-2
6.728976829E0,-1.556676626E-2,1.231351122E-2,-3.442955017E-2
6.734018184E0,2.977482975E-2,-1.865552366E-2,1.490592957E-3
6.739059538E0,-1.355215907E-3,-1.143649966E-2,-3.177928925E-2
6.744100892E0,-8.314967155E-3,-2.328278869E-2,-6.303787231E-4
6.749311882E0,-1.046104729E-2,1.731010154E-2,-3.744316101E-2
6.754353184E0,-6.733030081E-3,-1.008660346E-2,4.007434845E-2
6.759394538E0,3.381027281E-2,1.255325601E-2,-6.580352783E-3
6.764435840E0,2.672433853E-3,-8.864663541E-3,3.504562378E-2
6.769477194E0,-2.575159073E-2,-1.117995381E-2,2.406597137E-2
6.774518548E0,2.667272091E-2,4.367984831E-3,-1.651954651E-2
6.779713132E0,3.882840276E-3,4.373274744E-3,3.825569153E-2
6.784754486E0,5.115807056E-3,2.689263225E-2,-2.145099640E-2
6.789795840E0,2.175311744E-2,5.355559289E-3,3.672599792E-3
6.794837142E0,-6.986260414E-3,1.593776792E-2,-1.298809052E-2
6.799878496E0,1.561360061E-2,1.344336197E-2,2.869129181E-2
6.804919798E0,8.279159665E-3,-1.397249848E-2,3.508567810E-3
6.810109225E0,4.727393389E-3,3.474878520E-2,2.367019653E-2
6.815150579E0,4.558652639E-3,1.779313385E-2,8.029937744E-3
6.820191934E0,1.040764153E-2,9.318947792E-3,-2.727508545E-3
6.825233236E0,3.293952346E-2,-2.524013817E-2,-2.703666687E-3
6.830274590E0,-5.472615361E-3,3.516510129E-3,2.701091766E-2
6.835315892E0,1.352551579E-2,-4.839044064E-3,2.203369141E-2
6.840472767E0,-1.989738643E-2,-2.035727724E-2,-7.845878601E-3
6.845514121E0,-1.940920949E-3,4.404410720E-5,-7.780075073E-3
6.850555423E0,-1.496346295E-2,2.858830988E-2,1.128959656E-2
6.855596777E0,-1.370295882E-2,1.524760574E-2,5.256652832E-3
6.860638132E0,9.004801512E-3,2.239001170E-2,2.303028107E-2
6.865679434E0,1.974891126E-2,4.504792392E-3,1.452636719E-2
6.870904069E0,-9.002149105E-3,5.696244538E-3,1.796817780E-2
6.875945423E0,1.015470922E-2,9.174238890E-3,-4.988288879E-2
6.880986777E0,3.862828016E-2,-1.237174869E-2,-2.927589417E-2
6.886028079E0,2.407911420E-2,-7.632683963E-3,-3.259563446E-2
6.891069434E0,-1.764141023E-2,-2.304740623E-2,-1.569461823E-2
6.896110736E0,-2.828720212E-2,1.743821427E-2,-2.150535583E-2
6.901302559E0,5.179032683E-3,2.683628350E-2,-9.448051453E-3
6.906343913E0,-1.371277869E-2,-4.410672933E-3,-1.887130737E-2
6.911385267E0,1.356500387E-2,1.350777224E-2,-8.993148804E-4
6.916426569E0,-5.552366376E-3,-1.631001011E-2,-1.276874542E-2
6.921467923E0,5.261436105E-3,2.895683050E-3,-5.533218384E-3
6.926509225E0,6.379649043E-3,1.114805043E-2,5.200386047E-3
6.931698757E0,-1.907512546E-3,-1.638276875E-2,2.653789520E-2
6.936740111E0,-2.443252504E-2,8.709575981E-3,2.631664276E-2
6.941781465E0,2.325581014E-2,1.926280931E-2,-1.072406769E-2
6.946822767E0,-2.091126144E-2,-3.346726298E-3,1.193237305E-2
6.951864121E0,-1.009896398E-2,-1.280664280E-2,-9.547233582E-3
6.956905423E0,1.255302131E-2,-1.983908191E-2,-2.340316772E-3
6.962095371E0,-1.964700222E-2,7.551457733E-3,2.143287659E-2
6.967136725E0,9.126633406E-3,-5.666699260E-3,1.063346863E-3
6.972178079E0,-2.420669794E-2,-2.331811935E-2,2.243041992E-3
6.977219382E0,-2.547428012E-3,-2.995930612E-3,2.716827393E-2
6.982260736E0,-1.338496804E-3,-2.433633804E-2,-2.752304077E-3
6.987302038E0,1.881311834E-2,-9.944457561E-3,-3.916740417E-3
6.992492246E0,1.511980593E-2,-2.694085240E-3,2.462196350E-2
6.997533600E0,-7.624521852E-3,-2.044956759E-2,-1.240348816E-2
7.002574954E0,2.044647932E-3,3.672128916E-2,3.283596039E-2
7.007616257E0,4.481017590E-3,-1.579396427E-3,1.474666595E-2
7.012657611E0,1.051194966E-2,1.499870047E-2,-6.753921509E-3
7.017698965E0,3.531545401E-3,1.129678637E-2,2.656173706E-2
7.022889954E0,-2.756643295E-2,2.193449065E-2,2.752590179E-2
7.027931257E0,1.143068075E-3,-2.677587420E-2,-4.772186279E-3
7.032972663E0,-2.259580791E-2,3.060324863E-2,-2.135944366E-2
7.038013965E0,-3.299386799E-2,1.499922201E-2,2.514171600E-2
7.043055319E0,1.840654016E-2,8.923497051E-3,-4.759788513E-3
7.048096621E0,4.077255726E-3,-4.330594093E-3,-5.908012390E-3
7.053288236E0,-7.807716727E-3,-4.253178835E-3,1.195812225E-2
7.058329590E0,-5.419015884E-3,-9.005904198E-3,-3.802871704E-2
7.063370944E0,-1.131339371E-2,2.666578442E-2,-3.652286530E-2
7.068412246E0,-5.280047655E-3,-3.366142511E-3,5.351066589E-3
7.073453600E0,7.985100150E-3,-1.515103877E-2,-6.284713745E-4
7.078494902E0,9.235352278E-3,-1.025879383E-2,2.669811249E-2
7.083685111E0,-1.686599851E-2,-2.208911255E-2,2.720832825E-3
7.088726465E0,2.249573171E-2,1.864958555E-2,6.262779236E-3
7.093767819E0,3.408263624E-2,-2.846032381E-3,8.585929871E-3
7.098809121E0,4.156038165E-3,-1.584683731E-2,1.089000702E-2
7.103850475E0,-1.847241819E-2,-2.406552806E-2,-3.196048737E-2
7.108891829E0,3.009378910E-3,1.542289555E-2,2.175521851E-2
7.114082559E0,-2.198579907E-2,-8.418414742E-3,-1.881027222E-2
7.119123913E0,-6.231576204E-3,-3.662277013E-3,5.102157593E-3
7.124165267E0,1.050031185E-2,-2.631355077E-2,3.594112396E-2
7.129206569E0,-5.079686642E-3,-1.897966489E-2,3.089046478E-2
7.134247923E0,-3.927394748E-3,1.194546372E-2,-2.994537354E-2
7.139289277E0,1.915067434E-3,-3.607224673E-3,2.018928528E-2
7.144479173E0,-4.762411118E-4,8.154962212E-3,-3.699207306E-2
7.149520527E0,3.877562284E-2,3.272287548E-3,1.323699951E-3
7.154561882E0,1.717641950E-2,3.426999971E-2,9.628295898E-3
7.159603184E0,8.693367243E-3,2.080330998E-2,-1.420783997E-2
7.164644538E0,3.067404032E-4,-1.269095019E-2,1.560497284E-2
7.169685840E0,2.529323101E-4,-3.635298088E-2,1.666164398E-2
7.174876621E0,1.669344306E-2,-9.879093617E-3,-6.068420410E-2
7.179917975E0,-5.961358547E-3,5.735959858E-3,-1.385402679E-2
7.184959329E0,1.076894999E-2,-4.962213337E-3,1.714420319E-2
7.190000632E0,1.125484705E-3,1.293529570E-2,-9.129524231E-3
7.195041986E0,1.301971078E-2,1.519107819E-2,-6.677627563E-3
7.200083288E0,1.531268656E-2,6.815835834E-3,-4.246711731E-3
7.205238809E0,1.164869964E-2,6.825488061E-3,-1.014900208E-2
7.210280163E0,1.155112684E-2,5.570266396E-3,-2.075386047E-2
7.215321465E0,-1.126745343E-2,-1.483552158E-2,3.048896790E-2
7.220362819E0,1.733213663E-2,1.854393631E-3,-7.773399353E-3
7.225404173E0,4.226297140E-3,1.140599698E-2,-5.817413330E-4
7.230445475E0,4.103718698E-2,6.522778422E-3,-2.195644379E-2
7.235669902E0,1.934251189E-2,-2.437204868E-2,3.405284882E-2
7.240711257E0,-4.496112466E-3,1.981788874E-2,-1.611614227E-2
7.245752611E0,1.573370397E-2,-7.600713521E-3,6.465911865E-4
7.250793913E0,-1.997813582E-2,-1.465033367E-2,-1.242351532E-2
7.255835267E0,-1.743583381E-2,8.104473352E-3,-2.063465118E-2
7.260876569E0,-8.975774050E-3,1.163931563E-2,5.667686462E-3
7.266067402E0,1.115754247E-2,2.108605206E-2,1.868438721E-2
7.271108757E0,1.511052251E-3,2.564908564E-2,2.327823639E-2
7.276150111E0,-1.045624912E-2,1.465529576E-2,5.267143250E-3
7.281191413E0,-7.376223803E-4,-2.229926735E-2,-4.466056824E-2
7.286232767E0,7.582977414E-3,8.782189339E-3,5.597114563E-3
7.291274069E0,-1.132853329E-2,1.104570180E-2,8.020401001E-4
7.296429902E0,8.957877755E-3,3.947157413E-3,-2.889728546E-2
7.301471257E0,-5.318030715E-3,2.740424126E-3,1.410388947E-2
7.306512559E0,2.338813245E-2,1.938531175E-2,-3.827285767E-2
7.311553913E0,8.940398693E-3,1.216253266E-2,-2.321243286E-3
7.316595267E0,-1.726530492E-2,-4.526287317E-3,-1.418018341E-2
7.321636569E0,-2.553893626E-2,1.455500349E-2,2.394580841E-2
7.326861986E0,1.867476106E-2,-9.927228093E-4,1.179695129E-3
7.331903340E0,-1.830178499E-2,-2.131387591E-3,5.921363831E-3
7.336944694E0,-3.947672248E-2,2.036355436E-2,1.299762726E-2
7.341985996E0,1.894906163E-2,2.339676023E-3,8.135795593E-3
7.347027350E0,1.517672837E-2,1.274652779E-3,5.693435669E-3
7.352068652E0,-7.412925363E-3,1.075279713E-2,-1.098155975E-2
7.357260267E0,3.195138276E-2,-4.762984812E-3,-3.108024597E-2
7.362301569E0,7.514953613E-4,-4.682827741E-3,-4.691123962E-3
7.367342923E0,-1.759201288E-3,-5.792453885E-3,-3.672313690E-2
7.372384225E0,2.325004339E-2,7.309552282E-3,2.779960632E-3
7.377425579E0,1.115237176E-2,1.803133264E-2,7.509231567E-3
7.382466882E0,2.563983202E-3,2.744913101E-2,3.175735474E-4
7.387656673E0,2.988781035E-2,-3.700237721E-3,3.238487244E-2
7.392697975E0,1.184754074E-2,-1.318172365E-2,8.359909058E-3
7.397739329E0,-1.322016120E-2,5.105578899E-2,-2.259254456E-2
7.402780632E0,7.081493735E-3,-1.824471354E-2,-5.775451660E-3
7.407821934E0,-1.079344749E-2,-1.108219102E-2,1.327610016E-2
7.412863288E0,-7.217720151E-3,1.141043007E-2,-1.415443420E-2
7.418049069E0,2.604594827E-2,2.682511508E-2,2.164840698E-4
7.423090423E0,-1.207579672E-2,-1.960360259E-2,-2.235126495E-2
7.428131725E0,2.598145604E-2,1.390850171E-2,-4.235649109E-2
7.433173079E0,3.041863441E-3,5.300387740E-2,-2.809524536E-3
7.438214382E0,3.093719482E-3,-3.273382783E-3,-4.435634613E-2
7.443255736E0,1.486824453E-2,-3.258381039E-3,2.334594727E-3
7.448394434E0,-1.017175615E-2,-1.741809025E-2,1.419353485E-2
7.453435788E0,1.963305473E-2,1.137615368E-2,2.357864380E-2
7.458477142E0,-7.477998734E-4,7.653735578E-3,3.288269043E-2
7.463518444E0,1.591265202E-2,-3.045542538E-2,5.388259888E-4
7.468559798E0,-5.599632859E-3,2.222915739E-2,-2.084445953E-2
7.473601100E0,-2.930817008E-2,7.302612066E-4,5.653381348E-2
7.478816361E0,-5.047470331E-4,1.385882124E-2,-9.489059448E-4
7.483857715E0,-2.428229153E-2,-4.031568766E-3,4.419422150E-2
7.488899069E0,-7.347717881E-3,3.013163805E-3,-1.556110382E-2
7.493940371E0,4.151546955E-2,-1.723859459E-3,-4.739761353E-3
7.498981725E0,2.815702558E-2,-3.384464607E-2,-8.262634277E-3
7.504023027E0,-1.243525743E-2,5.621127784E-3,2.150058746E-2
7.509233965E0,-1.832376420E-2,3.293376416E-3,-5.996704102E-3
7.514275319E0,-1.339392364E-2,-1.812598854E-2,-2.613925934E-2
7.519316673E0,-4.942163825E-3,1.885981113E-2,-3.304767609E-2
7.524357975E0,8.190333843E-3,-7.362373173E-3,4.561996460E-2
7.529399329E0,1.181429625E-2,-2.148744091E-2,6.045341492E-3
7.534440632E0,3.479227424E-3,2.376274765E-2,-1.775932312E-2
7.539607246E0,-9.641602635E-3,7.003743201E-3,3.768920898E-3
7.544648600E0,-2.486348152E-3,-1.560809463E-2,9.675979614E-3
7.549689902E0,1.183962822E-2,9.529862553E-3,-1.059627533E-2
7.554731257E0,4.407629371E-3,1.664264873E-2,-3.901576996E-2
7.559772611E0,2.102547884E-2,-9.742114693E-3,-4.245758057E-3
7.564813913E0,3.059551120E-3,-3.342735395E-2,6.479263306E-3
7.570039121E0,-1.947942376E-2,9.624578059E-3,2.861976624E-3
7.575080423E0,-3.950873017E-2,-2.971564978E-2,1.590442657E-2
7.580121777E0,-3.688210249E-2,6.050672382E-3,-4.422187805E-3
7.585163079E0,-5.745410919E-3,-9.528443217E-3,-4.384994507E-3
7.590204434E0,-1.984775066E-2,1.674863324E-2,4.034042358E-4
7.595245788E0,5.286589265E-3,2.041903883E-2,-4.235744476E-2
7.600402142E0,1.461191475E-2,-2.611130849E-2,9.066581726E-3
7.605443496E0,7.363379002E-3,8.514128625E-3,-8.825302124E-3
7.610484798E0,-9.863078594E-4,1.811435074E-2,-1.706504822E-2
7.615526152E0,-5.728453398E-3,1.797630265E-2,3.268241882E-3
7.620567507E0,-1.748046279E-2,-3.212333471E-2,1.155662537E-2
7.625608809E0,2.856895328E-3,-3.334846348E-3,4.333496094E-3
7.630834017E0,1.349623501E-2,2.051614225E-2,-1.641273499E-3
7.635875371E0,-1.633591950E-2,-3.309002146E-2,-1.626968384E-3
7.640916725E0,-3.404192626E-2,-1.741122082E-2,2.095222473E-2
7.645958027E0,4.101942480E-2,7.741425186E-3,-5.761337280E-2
7.650999382E0,-8.422881365E-4,-1.730347797E-2,1.413059235E-2
7.656040684E0,1.346968114E-2,1.376221329E-2,-4.774951935E-2
7.661230684E0,8.632823825E-3,-1.009260118E-2,1.322364807E-2
7.666272038E0,-2.221709490E-2,2.434661612E-2,1.073837280E-2
7.671313392E0,-1.617065072E-2,-1.028733701E-2,2.133846283E-2
7.676354694E0,-4.691813886E-2,4.040900618E-3,1.997280121E-2
7.681396048E0,-7.516145706E-5,1.228372753E-2,-5.134582520E-3
7.686437350E0,-7.504224777E-5,9.821128100E-3,-2.053356171E-2
7.691631986E0,3.488779068E-3,1.359719783E-3,-5.243206024E-2
7.696673340E0,-2.749976516E-2,-1.394855231E-2,3.708648682E-2
7.701714694E0,-2.716751397E-2,2.837106586E-3,2.371501923E-2
7.706755996E0,1.616448164E-3,1.096166298E-2,-1.211547852E-2
7.711797350E0,3.953218460E-3,1.080563292E-2,-1.320362091E-2
7.716838652E0,-2.332064509E-2,-1.096025109E-3,4.510879517E-2
7.722026309E0,6.820559502E-4,-1.888857037E-2,1.741600037E-2
7.727067663E0,1.978422701E-2,3.772214055E-3,-6.483078003E-3
7.732109017E0,-2.678084373E-2,9.667966515E-3,1.613712311E-2
7.737150319E0,1.855151355E-2,4.875801504E-3,-4.100990295E-2
7.742191673E0,1.364587247E-2,-4.781950265E-3,-1.572608948E-2
7.747233027E0,-3.148689866E-3,7.176630199E-3,-2.034664154E-2
7.752387507E0,1.629397273E-3,-4.747916013E-3,-2.359390259E-3
7.757428861E0,1.584264636E-2,2.009433508E-2,-2.253341675E-2
7.762470163E0,7.370710373E-3,-1.685417816E-2,-2.153396606E-3
7.767511517E0,-8.080184460E-3,-2.377360687E-2,-1.401233673E-2
7.772552871E0,1.703330874E-2,3.473069519E-3,-1.151943207E-2
7.777594173E0,6.227687001E-3,8.157018572E-3,5.152797699E-2
7.782820111E0,2.586379647E-3,-1.533694565E-3,-1.660537720E-2
7.787861413E0,-3.296315670E-3,2.343592048E-2,1.797962189E-2
7.792902819E0,-5.696102977E-3,-1.134527847E-2,1.663970947E-2
7.797944121E0,5.119040608E-3,3.015942872E-3,2.600383759E-2
7.802985475E0,-1.862667501E-2,3.004048020E-3,4.360485077E-2
7.808026777E0,6.471753120E-3,2.674775198E-2,-3.080368042E-3
7.813191882E0,-3.110259771E-3,5.185268819E-3,-3.512382507E-2
7.818233236E0,-1.718232036E-2,-1.839192957E-2,-1.582431793E-2
7.823274590E0,-3.126640618E-2,2.445728704E-2,4.131984711E-2
7.828315892E0,-9.497106075E-3,1.956877857E-2,5.950927734E-4
7.833357298E0,-2.214014530E-3,-2.450086921E-2,2.553272247E-2
7.838398548E0,6.092831492E-3,-1.359261572E-2,-1.268768311E-2
7.843608184E0,-5.782634020E-3,-4.516579211E-4,4.561805725E-2
7.848649538E0,7.382586598E-3,1.136635616E-2,1.673221588E-2
7.853690892E0,-2.820786834E-2,-6.182380021E-4,5.222702026E-2
7.858732194E0,1.592324674E-2,1.835185289E-2,1.734542847E-2
7.863773548E0,1.579067111E-2,-6.678342819E-3,1.838874817E-2
7.868814850E0,2.260483801E-2,1.828207821E-2,2.791404724E-3
7.873998913E0,4.743894935E-2,-3.314699978E-3,2.177238464E-2
7.879040267E0,3.286892176E-2,2.887547016E-4,-2.161979675E-3
7.884081621E0,-2.439105511E-2,1.539073884E-3,2.042388916E-2
7.889122923E0,2.926176786E-2,3.247293085E-2,-2.725696564E-2
7.894164277E0,1.001405716E-2,-2.306677401E-3,2.523231506E-2
7.899205579E0,1.106709242E-2,-1.531369239E-2,-4.672050476E-3
7.904393496E0,6.117641926E-3,-2.026904374E-3,4.867553711E-3
7.909434850E0,2.749818563E-2,4.123780876E-3,-2.367687225E-2
7.914476204E0,-2.506937087E-2,2.899350598E-2,-2.585697174E-2
7.919517507E0,-1.208961010E-3,1.216374710E-2,-1.257610321E-2
7.924558861E0,7.193312049E-3,1.086233929E-2,-3.147506714E-2
7.929600163E0,8.346810937E-3,1.672521234E-2,-1.458358765E-2
7.934804746E0,1.302841306E-2,-1.069151983E-2,4.017448425E-2
7.939846100E0,-1.318532228E-2,-1.059547067E-3,8.958816528E-3
7.944887454E0,8.381560445E-3,1.257769763E-4,-2.556037903E-2
7.949928757E0,-9.426757693E-3,-1.023583114E-3,4.116916656E-2
7.954970111E0,3.573401272E-2,8.399508893E-3,-2.331542969E-2
7.960011413E0,-7.142022252E-3,-4.747428000E-3,-2.925872803E-3
7.965202454E0,7.223799825E-3,1.212187111E-2,-1.121425629E-2
7.970243809E0,2.379216254E-2,-1.060988754E-2,-2.299785614E-2
7.975285163E0,2.292767167E-3,1.804867387E-2,-4.987716675E-3
7.980326465E0,-8.468091488E-3,2.021079510E-2,2.118301392E-2
7.985367819E0,3.428608179E-3,1.277420670E-2,-9.877204895E-3
7.990409121E0,-2.758489549E-2,-2.759516239E-3,-1.481056213E-3
7.995598600E0,-7.056489587E-3,-2.908572555E-3,-2.657890320E-3
8.000639954E0,-2.476221323E-2,-9.945236146E-3,-9.760856628E-3
8.005681309E0,4.053607583E-3,3.296327591E-2,5.208587646E-2
8.010722611E0,-1.258330047E-2,6.624586880E-3,-3.505325317E-2
8.015763965E0,-5.326062441E-3,6.448589265E-4,-1.932144165E-2
8.020805319E0,5.407646298E-3,-7.711265236E-3,5.782127380E-3
8.025996257E0,-1.847225428E-2,-2.777164057E-2,-2.040863037E-4
8.031037611E0,3.087326884E-3,-1.205956936E-2,-2.039432526E-2
8.036078965E0,-2.304357290E-2,-1.280177385E-3,5.222988129E-2
8.041120267E0,1.404605806E-2,-1.545558125E-2,1.497554779E-2
8.046161621E0,1.630398631E-2,1.670625061E-2,-2.078247070E-2
8.051202923E0,-6.477206945E-3,-1.073644683E-2,-1.823425293E-2
8.056394798E0,-2.966701984E-3,-1.662400737E-2,-2.643585205E-3
8.061436152E0,2.215604484E-2,2.145944908E-2,5.695343018E-3
8.066477507E0,2.313296497E-2,2.361934632E-2,-2.879905701E-2
8.071518809E0,2.172730863E-2,1.390714198E-2,-1.074123383E-2
8.076560163E0,4.917740822E-3,4.811771214E-4,3.599166870E-3
8.081601465E0,-1.061612368E-2,-3.045294434E-3,-4.744529724E-3
8.086792246E0,-3.427639604E-3,-3.005582839E-3,-3.321170807E-2
8.091833600E0,7.420524955E-3,1.611442119E-2,-3.237724304E-3
8.096874954E0,1.686084270E-2,-6.495747715E-3,-1.865196228E-2
8.101916257E0,8.432298899E-3,1.730091497E-2,-2.205944061E-2
8.106957611E0,5.481389165E-2,1.358186826E-2,-3.256320953E-2
8.111998913E0,1.629674435E-2,-5.598094314E-3,-4.179573059E-2
8.117188652E0,-7.487729192E-3,3.832187504E-3,-2.363014221E-2
8.122229954E0,-3.762692213E-4,-4.500135779E-3,-2.818679810E-2
8.127271361E0,3.053396940E-2,-8.323527873E-4,-3.864002228E-2
8.132312663E0,4.174828529E-3,1.705658808E-2,4.601383209E-2
8.137354017E0,-1.003538072E-2,-1.635471731E-2,-1.019287109E-2
8.142395319E0,2.206578851E-2,1.005615667E-2,1.245880127E-2
8.147585059E0,1.121835411E-2,-1.141854376E-2,-1.733875275E-2
8.152626361E0,2.550706267E-2,1.471844316E-2,6.237030029E-4
8.157667715E0,2.769631147E-2,-7.854927331E-3,-2.943992615E-3
8.162709017E0,-1.648154855E-2,-1.487589255E-2,1.133346558E-2
8.167750319E0,-1.048259437E-2,1.851853728E-2,5.162239075E-2
8.172791725E0,-1.633420587E-2,-4.369616508E-3,-1.651191711E-2
8.177966569E0,-7.857099175E-3,2.834174782E-3,-3.418922424E-2
8.183007923E0,-6.681308150E-3,3.455244005E-4,1.716709137E-2
8.188049225E0,5.303487182E-3,-5.736716092E-3,4.553031921E-2
8.193090579E0,6.446778774E-3,-1.158722863E-2,-1.542472839E-2
8.198131934E0,-7.782459259E-3,1.225287840E-2,1.796245575E-2
8.203173236E0,6.379172206E-3,-8.462145925E-4,-1.188278198E-2
8.208355996E0,-1.510672271E-2,6.275113672E-3,4.843711853E-3
8.213397298E0,-2.691058815E-2,-6.801377982E-3,2.499580383E-2
8.218438652E0,2.443879843E-2,1.470126584E-2,-4.410171509E-2
8.223480007E0,4.220643640E-2,7.492672652E-3,1.327991486E-2
8.228521309E0,1.440709829E-2,-1.145652682E-2,-5.835533142E-3
8.233562663E0,7.186934352E-3,7.759422064E-3,-5.785942078E-3
8.238748392E0,9.502544999E-3,-7.864434272E-3,1.387596130E-3
8.243789746E0,1.301209629E-2,-2.911188826E-2,-1.762771606E-2
8.248831100E0,-2.518159151E-2,-5.101222545E-3,5.022048950E-2
8.253872402E0,-2.858692408E-2,1.398587227E-2,5.853652954E-3
8.258913757E0,-1.657475531E-2,2.333426103E-2,-1.438808441E-2
8.263955059E0,1.687227190E-2,1.584649086E-2,-2.970886230E-2
8.269141517E0,2.026911080E-2,-1.159106940E-2,2.608299255E-3
8.274182871E0,-4.842892289E-3,1.330786943E-2,-6.916046143E-3
8.279224173E0,-2.502064407E-2,-4.630330950E-3,3.471279144E-2
8.284265527E0,1.309292018E-2,7.377002388E-3,-2.288818359E-5
8.289306882E0,-7.285892963E-3,1.551512256E-2,-3.328227997E-2
8.294348184E0,-1.761913300E-4,-7.244896144E-3,6.190299988E-3
8.299549902E0,-2.389878035E-3,1.178025454E-2,-4.493331909E-2
8.304591257E0,1.539434493E-2,1.058910042E-3,1.763343811E-3
8.309632559E0,6.900325418E-3,3.232307732E-3,-6.275177002E-4
8.314673913E0,-2.158601582E-2,-8.631743491E-3,5.045127869E-2
8.319715267E0,-2.324447036E-3,-8.571431041E-3,9.648323059E-3
8.324756569E0,-9.508788586E-3,-1.724474132E-4,1.312923431E-2
8.329968704E0,-3.517508507E-3,-2.507244423E-2,1.420783997E-2
8.335010059E0,3.108571470E-2,4.793651402E-3,4.022216797E-2
8.340051413E0,4.740351439E-2,8.382961154E-3,-4.919528961E-2
8.345092715E0,-1.002980769E-2,2.735736221E-2,2.288818359E-3
8.350134069E0,3.160049021E-2,2.226094157E-2,2.127361298E-2
8.355175371E0,2.297122777E-2,7.862124592E-3,1.634502411E-2
8.360366621E0,-1.296009123E-2,3.035344556E-2,1.953125000E-3
8.365407975E0,-6.913185120E-3,-5.647636950E-3,-4.386901855E-4
8.370449329E0,-1.274317503E-2,5.345232785E-4,-1.468658447E-2
8.375490632E0,3.722268343E-2,-4.154309630E-3,-3.000545502E-2
8.380531986E0,-2.967885137E-2,6.634440273E-3,3.557014465E-2
8.385573288E0,8.654475212E-3,1.606928557E-2,-3.576278687E-4
8.390763236E0,2.642627060E-2,7.607050240E-3,-2.886009216E-2
8.395804590E0,2.605840564E-3,-8.966907859E-3,-1.198863983E-2
8.400845944E0,1.686339080E-2,-3.619702905E-2,-9.028053284E-2
8.405887246E0,8.434474468E-3,2.218937501E-2,4.231262207E-2
8.410928600E0,-1.892825961E-2,-3.002114594E-3,-2.217960358E-2
8.415969902E0,8.574217558E-3,3.979544342E-2,-3.505897522E-2
8.421160684E0,3.643751144E-3,-6.787709892E-3,1.868057251E-2
8.426202038E0,-1.192092896E-6,-1.157237217E-2,-5.392932892E-2
8.431243392E0,-1.763623953E-2,7.464207709E-3,2.135086060E-2
8.436284694E0,-2.218924463E-2,-5.673598498E-3,7.105922699E-2
8.441326048E0,2.886533737E-3,-5.663111806E-3,1.820564270E-2
8.446367402E0,-2.946615219E-3,2.918530256E-3,-8.073806763E-3
8.451523184E0,-1.123605669E-2,2.961002290E-3,-2.463531494E-2
8.456564538E0,-4.119038582E-3,-1.145834848E-2,-4.240989685E-3
8.461605840E0,1.956701279E-3,-6.595894694E-3,-3.627204895E-2
8.466647194E0,1.975668967E-2,-1.016752422E-2,-3.834533691E-2
8.471688548E0,5.621910095E-4,-1.722127944E-2,2.136230469E-2
8.476729850E0,5.319416523E-4,-1.941384375E-2,3.367424011E-3
8.481955059E0,5.251526833E-3,3.491282463E-3,-2.397918701E-2
8.486996413E0,-3.628644347E-2,2.268777788E-2,3.442382812E-2
8.492037767E0,1.508952677E-2,-1.446268335E-2,1.513195038E-2
8.497079069E0,5.462169647E-3,4.752788693E-3,1.381874084E-2
8.502120423E0,-5.298659205E-3,2.721626312E-2,-8.864402771E-3
8.507161725E0,2.789896727E-2,2.937990427E-2,-2.853393555E-3
8.512351569E0,3.752410412E-4,1.362764463E-2,-1.470661163E-2
8.517392923E0,6.259292364E-3,-1.146663353E-2,4.717826843E-2
8.522434277E0,8.582487702E-3,-3.145623952E-3,-9.039878845E-3
8.527475579E0,1.384064555E-3,-7.548257709E-4,2.785587311E-2
8.532516934E0,6.149515510E-3,-1.374823228E-2,-3.176212311E-2
8.537558288E0,-3.429368138E-3,3.497457132E-2,3.145217896E-2
8.542749746E0,-1.401059330E-2,-1.989889890E-3,1.218795776E-2
8.547791048E0,-1.626926661E-2,1.655608416E-3,-1.404380798E-2
8.552832454E0,-2.669435740E-2,-3.278857842E-2,2.408409119E-2
8.557873757E0,7.947847247E-3,2.949282527E-3,-2.481651306E-2
8.562915111E0,4.937545955E-2,-1.957670972E-2,-1.985931396E-2
8.567956413E0,-9.479075670E-4,6.705828011E-3,-2.088165283E-2
8.573147194E0,-1.397860050E-2,4.182249308E-3,5.422592163E-3
8.578188548E0,1.479892433E-2,-8.825421333E-3,-3.143882751E-2
8.583229902E0,-3.089219332E-3,-2.660537884E-2,-2.998924255E-2
8.588271204E0,8.658736944E-3,-1.426156610E-3,1.776790619E-2
8.593312559E0,7.476344705E-3,-9.740177542E-3,1.999664307E-2
8.598353861E0,-5.806609988E-3,2.007539570E-2,1.982784271E-2
8.603543809E0,-2.133223414E-2,3.347411752E-3,5.648231506E-2
8.608585163E0,-2.218745649E-2,-3.688655794E-3,-3.306770325E-2
8.613626465E0,2.901868522E-2,-5.836810917E-3,-2.091407776E-2
8.618667819E0,-1.282057166E-2,1.560573280E-2,6.577491760E-3
8.623709173E0,9.956896305E-3,1.549028233E-2,2.552986145E-2
8.628750527E0,-1.269368827E-2,-2.017937228E-2,7.164001465E-2
8.633940267E0,1.483763754E-2,1.341906190E-2,-2.872467041E-2
8.638981621E0,-9.067386389E-3,1.812491938E-2,-7.599639893E-2
8.644022975E0,-2.683441341E-2,1.083639637E-2,1.371860504E-2
8.649064277E0,-1.351903379E-2,-2.244649455E-2,3.260993958E-2
8.654105632E0,1.990209520E-2,-1.274211332E-2,1.571083069E-2
8.659146934E0,3.055706620E-3,1.826037839E-2,1.439094543E-2
8.664303288E0,-1.824317873E-2,-2.936210111E-2,4.515457153E-2
8.669344642E0,-1.571579278E-2,-5.270075053E-3,2.019882202E-3
8.674385944E0,2.712236345E-2,7.854111493E-3,7.940292358E-3
8.679427298E0,-1.224830747E-2,-8.721560240E-3,1.936912537E-3
8.684468652E0,-2.040886879E-2,4.456579685E-3,2.330207825E-2
8.689509954E0,7.079735398E-3,1.282526180E-2,-1.727581024E-2
8.694700215E0,-6.151258945E-3,2.070225775E-3,6.622314453E-3
8.699741517E0,-3.594607115E-3,-3.847040236E-3,-5.307197571E-3
8.704782871E0,-5.888298154E-3,8.723810315E-4,-2.664279938E-2
8.709824225E0,-2.249538898E-3,1.389162987E-2,6.835937500E-3
8.714865579E0,7.375299931E-3,-3.612293303E-2,2.459716797E-2
8.719906882E0,2.982963622E-2,1.162474975E-2,3.009796143E-3
8.725132350E0,-2.510960400E-2,-1.699000224E-2,3.505325317E-2
8.730173704E0,1.426860690E-2,-4.954218864E-3,-9.184837341E-3
8.735215059E0,-1.314324141E-2,1.066654921E-3,-7.934570312E-4
8.740256361E0,1.906174421E-2,1.284581795E-2,5.152702332E-3
8.745297715E0,2.428770065E-3,8.029207587E-3,1.547813416E-3
8.750339017E0,-2.369613945E-2,2.101569995E-2,-3.409767151E-2
8.755529277E0,1.444369555E-3,-7.731165737E-3,1.844692230E-2
8.760570632E0,3.463771939E-2,-1.118988544E-2,-9.025573730E-3
8.765611986E0,4.603236914E-3,-5.169123411E-3,-1.845264435E-2
8.770653288E0,-1.449069381E-2,-1.461451873E-2,-1.236057281E-2
8.775694642E0,1.173451543E-2,9.173911065E-3,-3.943443298E-3
8.780735944E0,1.042324305E-2,-4.083272070E-3,-1.535415649E-3
8.785927246E0,-5.211234093E-3,7.949896157E-3,-3.359317780E-2
8.790968600E0,-3.961314261E-2,-7.542271167E-3,3.913879395E-2
8.796009954E0,1.290130615E-2,1.760572195E-2,-1.226043701E-2
8.801051257E0,-1.803594828E-2,3.169982880E-2,2.941417694E-2
8.806092611E0,1.062132418E-2,2.194617689E-2,-2.903079987E-2
8.811133913E0,-1.370012760E-3,-5.593948066E-3,-1.691246033E-2
8.816290007E0,-9.673282504E-3,5.184207112E-3,-2.508640289E-2
8.821331361E0,1.886239648E-2,8.536156267E-3,-1.893901825E-2
8.826372663E0,-2.622619271E-3,-9.415011853E-3,2.597808838E-3
8.831414017E0,1.160058379E-2,-8.212126791E-3,-1.524162292E-2
8.836455371E0,-1.700197160E-2,-6.838891655E-3,-2.224063873E-2
8.841496673E0,1.531288028E-2,-2.017289400E-3,-1.255035400E-2
8.846686152E0,6.790935993E-3,2.066181228E-2,-2.907466888E-2
8.851727507E0,-4.909071326E-2,2.399025857E-2,1.511478424E-2
8.856768809E0,-1.183512807E-2,-3.199450672E-2,3.399372101E-2
8.861810163E0,1.199199259E-2,1.102149114E-2,-1.142406464E-2
8.866851517E0,9.723544121E-3,-2.070050687E-3,1.480484009E-2
8.871892819E0,-1.764979959E-2,1.585474238E-2,-1.382350922E-2
8.877118392E0,-1.742205024E-2,9.797900915E-3,2.311325073E-2
8.882159746E0,-1.991316676E-3,1.084102318E-2,-1.746654510E-2
8.887201100E0,-2.095289528E-2,-1.296469569E-2,3.612899780E-2
8.892242402E0,1.952850819E-2,2.493649721E-3,2.569198608E-3
8.897283757E0,7.513999939E-3,1.183402166E-2,2.392673492E-2
8.902325059E0,-1.733687520E-2,-1.791741326E-2,-2.140617371E-2
8.907515267E0,5.215376616E-3,-1.125156879E-3,2.746963501E-2
8.912556569E0,6.359770894E-3,5.972959101E-3,-1.789474487E-2
8.917597923E0,-9.159520268E-3,1.293366402E-2,4.821777344E-3
8.922639225E0,2.420017123E-2,1.761636510E-2,2.407073975E-3
8.927680579E0,9.667918086E-3,4.129037261E-2,-3.324699402E-2
8.932721934E0,1.093028486E-2,-1.478649676E-2,4.186153412E-2
8.937904590E0,2.550482750E-4,2.452220395E-2,-5.995750427E-3
8.942945944E0,-3.176426888E-2,7.049031556E-4,6.056976318E-2
8.947987246E0,1.002034545E-2,5.489848554E-3,7.803916931E-3
8.953028600E0,1.115006208E-2,1.490936801E-2,-4.808616638E-2
8.958069902E0,1.841644943E-2,-1.370681077E-2,-3.461647034E-2
8.963111257E0,-3.164875507E-2,-1.835522056E-2,3.812503815E-2
8.968289798E0,8.999824524E-3,-2.531659976E-2,3.305530548E-2
8.973331152E0,1.772418618E-3,-2.607221529E-2,-6.413459778E-3
8.978372454E0,4.565301538E-2,2.634273842E-2,7.890701294E-3
8.983413809E0,-1.881466806E-2,1.895919815E-2,-7.615089417E-3
8.988455163E0,8.531346917E-3,3.270819783E-3,7.886886597E-3
8.993496465E0,-9.408488870E-3,1.746053994E-2,3.068923950E-3
8.998650788E0,6.005555391E-3,1.973019168E-2,7.793426514E-3
9.003692142E0,3.528371453E-3,1.129125804E-2,-1.483821869E-2
9.008733444E0,-1.085698605E-2,-1.974922419E-2,1.141357422E-2
9.013774746E0,-9.423285723E-3,-1.727313548E-2,1.607131958E-2
9.018816152E0,-5.807399750E-3,3.076951951E-3,9.998321533E-3
9.023857454E0,-4.442423582E-3,-1.123823971E-2,9.918212891E-3
9.029064225E0,7.445693016E-3,1.608102396E-2,-1.392078400E-2
9.034105579E0,-1.035526395E-2,2.301057056E-2,-7.381439209E-4
9.039146882E0,2.417606115E-2,2.156738564E-2,-5.180549622E-2
9.044188236E0,-2.707330883E-2,-4.728421569E-3,-6.238937378E-3
9.049229590E0,1.736670732E-3,1.391991973E-3,4.503250122E-3
9.054270892E0,1.729309559E-2,4.982095212E-3,-3.472805023E-2
9.059487663E0,1.955103874E-2,1.312125474E-3,-2.374935150E-2
9.064529017E0,5.238637328E-3,-1.291211694E-2,4.956245422E-3
9.069570319E0,-3.094106913E-3,1.331590116E-2,3.223419189E-2
9.074611673E0,-3.146320581E-3,1.453694329E-2,1.533699036E-2
9.079653027E0,4.692226648E-4,-4.131730646E-2,2.946281433E-2
9.084694329E0,1.236900687E-2,-8.889947087E-3,-4.768371582E-4
9.089899121E0,2.417004108E-2,-1.489980519E-2,-3.610610962E-2
9.094940475E0,-1.992665231E-2,2.089688554E-2,-7.298469543E-3
9.099981829E0,-1.970903575E-2,-2.914361656E-3,-2.505302429E-2
9.105023132E0,-3.730930388E-2,2.436469123E-2,1.791477203E-2
9.110064486E0,2.171531320E-3,-3.116317093E-3,-1.192855835E-2
9.115105788E0,9.357526898E-3,2.543010563E-2,-6.646537781E-2
9.120295840E0,1.038722694E-2,-6.809629500E-3,-8.135318756E-2
9.125337194E0,1.027479768E-2,6.404288113E-3,2.741050720E-2
9.130378548E0,1.124757528E-2,-2.691789716E-2,8.176803589E-3
9.135419850E0,-1.489944756E-2,-4.085730761E-3,4.017925262E-2
9.140461204E0,1.852691174E-3,-6.230562925E-3,3.390598297E-2
9.145502507E0,-1.241573691E-2,2.598233148E-2,1.937103271E-2
9.150694329E0,8.065849543E-4,-1.822051778E-2,-1.998710632E-2
9.155735684E0,-5.087524652E-3,-2.048098296E-2,3.728866577E-4
9.160777038E0,-9.847298265E-3,1.533533260E-2,-2.338790894E-2
9.165818340E0,3.183276951E-2,4.530619830E-3,-2.319335938E-2
9.170859694E0,7.889673114E-3,1.873470098E-2,-6.369590759E-3
9.175900996E0,1.962377131E-2,-1.453474537E-2,-4.788875580E-2
9.181090007E0,1.122568548E-2,-1.801545545E-2,-1.779460907E-2
9.186131361E0,2.417157590E-2,5.852371454E-3,6.108283997E-3
9.191172715E0,1.402571797E-3,-6.007667631E-3,-1.888656616E-2
9.196214017E0,2.044667304E-2,2.599683031E-2,-5.079841614E-2
9.201255371E0,1.309858263E-2,-2.738956362E-3,1.613903046E-2
9.206296673E0,1.063978672E-2,9.149853140E-3,1.752853394E-3
9.211486621E0,1.176556945E-2,-8.834913373E-3,2.549266815E-2
9.216527975E0,-1.294732094E-3,1.511222869E-2,-3.172969818E-2
9.221569329E0,-1.548518240E-2,-4.081483930E-3,3.029823303E-2
9.226610632E0,4.861265421E-3,1.378383115E-2,2.648162842E-2
9.231651986E0,-1.637853682E-2,1.719613001E-2,2.507591248E-2
9.236693340E0,-7.746577263E-3,-7.798597217E-3,-1.432704926E-2
9.241883809E0,1.926168799E-3,1.603693515E-2,-1.301765442E-2
9.246925163E0,-1.838478446E-2,-1.137603819E-2,-1.528549194E-2
9.251966517E0,1.502594352E-2,-1.950438693E-2,4.898166656E-2
9.257007819E0,4.315093160E-3,-1.106670499E-2,3.075790405E-2
9.262049173E0,-8.760258555E-3,1.279459894E-2,-3.601264954E-2
9.267090475E0,2.591283619E-2,9.061381221E-3,2.486515045E-2
9.272282350E0,-4.065649211E-2,-1.665439457E-3,-1.809978485E-2
9.277323704E0,3.758609295E-3,4.301495850E-3,-1.318931580E-3
9.282365059E0,-2.116346359E-2,1.256732643E-2,1.888561249E-2
9.287406361E0,-3.157354891E-2,6.512209773E-3,8.039474487E-3
9.292447715E0,-3.250241280E-4,-5.354341120E-3,-2.409553528E-2
9.297489069E0,1.398278773E-2,-7.594082505E-3,-4.889488220E-3
9.302644850E0,5.606085062E-3,-2.288054302E-2,2.722167969E-2
9.307686152E0,-2.781018615E-3,2.380245551E-2,-1.338863373E-2
9.312727507E0,1.387104392E-2,1.155908033E-2,-1.921749115E-2
9.317768861E0,-1.113456488E-2,-1.106727123E-2,2.726745605E-2
9.322810215E0,-1.228125393E-2,8.120920509E-3,-1.215648651E-2
9.327851517E0,-3.993988037E-3,-1.434473693E-2,4.571914673E-3
9.333077975E0,-3.706216812E-4,1.210792363E-2,-2.145767212E-4
9.338119329E0,2.033621073E-3,-2.257851139E-2,-8.527755737E-3
9.343160684E0,1.379108429E-2,2.988457121E-2,3.905296326E-2
9.348201986E0,1.127462089E-2,-2.290029079E-3,1.022148132E-2
9.353243340E0,-2.558830380E-2,1.904571429E-2,3.151607513E-2
9.358284642E0,-2.884671092E-3,5.834553391E-3,3.956604004E-2
9.363475215E0,2.327048779E-2,8.201703429E-3,-9.461402893E-3
9.368516517E0,-1.735895872E-2,1.635848358E-2,3.693962097E-2
9.373557923E0,1.707576215E-2,1.850780100E-2,-1.379013062E-3
9.378599225E0,-3.055135906E-2,8.918173611E-3,1.288509369E-2
9.383640579E0,-3.502199054E-2,7.722079754E-3,2.346801758E-2
9.388681882E0,-3.718659282E-3,4.133559763E-3,2.446269989E-2
9.393836725E0,6.976455450E-3,2.425093576E-2,-3.394317627E-2
9.398878079E0,-9.658604860E-3,1.218552515E-2,-2.178192139E-2
9.403919382E0,1.061356068E-2,-2.002261579E-2,2.116012573E-2
9.408960736E0,-4.941761494E-3,-2.050653100E-3,1.742076874E-2
9.414002038E0,5.789011717E-3,-1.869929582E-2,1.965141296E-2
9.419043392E0,1.160287857E-2,1.593958586E-2,-4.346466064E-2
9.424268079E0,1.393508911E-2,-3.155432642E-3,8.449554443E-4
9.429309434E0,1.786008477E-3,3.970079124E-4,-1.697921753E-2
9.434350788E0,1.362359524E-2,-2.822925150E-2,-6.434917450E-2
9.439392090E0,-1.977258921E-2,6.547234952E-4,-2.817916870E-2
9.444433444E0,3.036975861E-3,2.909247950E-2,-7.751464844E-3
9.449474746E0,-3.494504094E-2,-1.025379077E-2,-3.619194031E-2
9.454665527E0,-1.824200153E-4,-2.211075276E-2,2.230930328E-2
9.459706882E0,2.130261064E-2,5.379296839E-3,-2.063560486E-2
9.464748236E0,7.027119398E-3,-2.785677090E-2,1.873588562E-2
9.469789538E0,2.166032791E-3,-8.684512228E-3,1.263999939E-2
9.474830892E0,-1.389577985E-3,1.877261326E-2,-1.717567444E-3
9.479872194E0,-7.342204452E-3,2.090147883E-2,1.730060577E-2
9.485062142E0,4.516601562E-3,-1.798797399E-3,-2.560329437E-2
9.490103496E0,-1.452535391E-2,-5.297325552E-4,-8.761405945E-3
9.495144850E0,1.296578348E-2,7.777392864E-3,-2.769279480E-2
9.500186152E0,8.106842637E-3,-3.374159709E-2,1.529884338E-2
9.505227507E0,1.016318798E-3,-1.937442273E-2,-2.689361572E-4
9.510268861E0,-1.796984673E-2,2.603816614E-2,1.279830933E-2
9.515459382E0,3.532871604E-3,-1.217239723E-2,6.732940674E-2
9.520500736E0,-1.072320342E-2,2.592432126E-2,-5.685806274E-3
9.525542090E0,4.677653313E-3,-3.564022481E-4,5.050659180E-3
9.530583392E0,-1.198969781E-2,2.113237977E-3,3.826713562E-2
9.535624746E0,-1.173675060E-3,1.148160920E-2,2.316474915E-3
9.540666048E0,-1.306688786E-2,3.156518191E-2,-1.908302307E-2
9.545821621E0,-2.127264440E-2,-1.608710364E-2,-7.044792175E-3
9.550862975E0,-2.940987051E-2,-2.061187476E-2,-8.172988892E-3
9.555904277E0,-8.998513222E-3,-1.525856555E-3,-2.948570251E-2
9.560945632E0,1.966071129E-2,-1.092439890E-2,2.183628082E-2
9.565986986E0,1.348029077E-2,2.597588301E-2,-1.873016357E-2
9.571028288E0,5.001738667E-3,-3.617042676E-2,5.150127411E-2
9.576252975E0,5.608738959E-2,6.958313286E-3,-2.613258362E-2
9.581294329E0,-1.802134514E-2,9.316653013E-3,-6.909370422E-3
9.586335684E0,1.419872046E-2,-5.000848323E-3,2.878093719E-2
9.591376986E0,-2.599999309E-3,1.881024614E-2,1.428604126E-2
9.596418340E0,-6.167188287E-3,6.841216236E-3,1.773071289E-2
9.601459642E0,-1.468092203E-3,1.041313261E-2,-1.421928406E-3
9.606650684E0,-6.286680698E-3,2.092398703E-2,-2.754211426E-2
9.611692038E0,1.276995242E-2,2.910370752E-2,1.069545746E-2
9.616733392E0,-2.650712430E-2,5.173031241E-3,1.773452759E-2
9.621774694E0,3.329291940E-3,1.821123809E-2,6.895065308E-3
9.626816048E0,6.865128875E-3,-4.442621022E-3,-2.404308319E-2
9.631857350E0,1.876318455E-2,1.443658024E-3,-2.978134155E-2
9.637048704E0,-5.041420460E-3,5.008533597E-3,1.797962189E-2
9.642090059E0,1.155219972E-2,-4.470650107E-3,4.158401489E-2
9.647131413E0,-4.036709666E-3,1.453325525E-2,4.123687744E-2
9.652172715E0,-2.055335045E-2,-8.220292628E-3,-3.052711487E-3
9.657214069E0,3.425002098E-3,2.744314447E-2,1.003837585E-2
9.662255371E0,2.828723192E-2,-5.950238556E-3,-5.537128448E-2
9.667445111E0,9.100586176E-3,1.552030072E-2,-1.808929443E-2
9.672486465E0,-6.519719958E-3,-4.812177271E-3,-2.499580383E-3
9.677527819E0,-8.814930916E-3,2.369630709E-2,-4.853248596E-3
9.682569121E0,6.622061133E-3,-1.103601977E-2,1.124382019E-3
9.687610475E0,-5.233317614E-3,-2.043150738E-2,2.962112427E-2
9.692651777E0,-5.163758993E-3,5.831621587E-3,-1.506805420E-3
9.697807142E0,-2.174918354E-2,-8.863955736E-5,2.344799042E-2
9.702848496E0,-2.040608227E-2,-3.108466417E-2,-3.613662720E-2
9.707889798E0,-8.332312107E-3,1.068188995E-2,-3.464794159E-2
9.712931152E0,6.016641855E-3,-2.257387713E-2,-3.673362732E-2
9.717972454E0,-2.135168016E-2,2.049053833E-2,-3.169059753E-3
9.723013809E0,-1.056170464E-2,3.679916263E-3,-1.977348328E-2
9.728224902E0,-1.279640198E-2,1.654363051E-2,3.384113312E-2
9.733266257E0,7.450103760E-3,-4.177942500E-2,5.731391907E-2
9.738307559E0,-2.116996050E-2,6.093323231E-3,-1.443099976E-2
9.743348913E0,1.582786441E-2,1.676753163E-4,1.130104065E-3
9.748390267E0,2.752158046E-2,-1.525996253E-2,2.307891846E-3
9.753431569E0,-9.476765990E-3,1.935264841E-2,-8.399963379E-3
9.758614798E0,-2.270922065E-3,1.086443663E-2,4.393100739E-2
9.763656152E0,2.266550064E-2,1.083885133E-2,-2.057456970E-2
9.768697507E0,-2.382016182E-2,1.078865305E-2,-1.397132874E-3
9.773738809E0,-2.005855739E-2,1.786576211E-2,1.761817932E-2
9.778780111E0,-8.039727807E-3,8.099768311E-3,3.218650818E-3
9.783821465E0,1.578223705E-2,-2.932883799E-4,-3.244113922E-2
9.789030788E0,1.092623174E-2,5.716491491E-3,4.650115967E-3
9.794072090E0,2.862593532E-2,9.055323899E-4,1.049041748E-3
9.799113444E0,1.175962389E-2,-2.678953111E-3,-4.171943665E-2
9.804154746E0,4.972225428E-2,2.029702067E-3,2.574920654E-3
9.809196100E0,-1.730962098E-2,-3.886900842E-3,5.125045776E-2
9.814237402E0,-4.073455930E-3,-3.816097975E-3,9.384155273E-4
9.819414069E0,9.025633335E-3,6.840851158E-3,9.244918823E-3
9.824455423E0,1.845246553E-2,-1.460741088E-2,1.391887665E-2
9.829496777E0,1.011382043E-2,-2.170175686E-2,-1.589012146E-2
9.834538079E0,-1.615276933E-2,2.248167992E-3,-3.713798523E-2
9.839579434E0,-1.940023899E-2,2.008559182E-2,2.731323242E-2
9.844620736E0,3.406822681E-3,2.238454670E-2,3.331184387E-3
9.849829277E0,1.171956956E-2,1.376447454E-2,-8.572578430E-3
9.854870632E0,3.359586000E-3,2.569610253E-2,-1.087474823E-2
9.859911986E0,1.639704406E-2,7.653657347E-3,-3.454017639E-2
9.864953288E0,-5.170866847E-3,3.497395664E-2,-4.557609558E-3
9.869994642E0,6.750553846E-3,3.110591695E-2,-9.565353394E-4
9.875035944E0,-5.130857229E-3,9.583055973E-3,4.299831390E-2
9.880226569E0,1.534339786E-2,-3.070611879E-2,4.634857178E-3
9.885267923E0,3.672504425E-2,2.975054085E-3,-1.516342163E-4
9.890309277E0,-8.637785912E-3,1.726831868E-2,1.054000854E-2
9.895350579E0,-1.685446501E-2,1.006419212E-2,-2.365112305E-4
9.900391934E0,2.718111873E-2,1.654755324E-3,-1.448822021E-2
9.905433236E0,-3.953158855E-3,-1.378528029E-2,6.164932251E-2
9.910596100E0,9.251028299E-3,8.938089013E-3,-5.376815796E-3
9.915637454E0,3.055386245E-2,-6.667118520E-3,-1.839923859E-2
9.920678757E0,-5.309134722E-4,2.087665349E-2,-1.614570618E-3
9.925720111E0,2.689532936E-2,-1.488994062E-2,-3.366851807E-2
9.930761465E0,-1.482367516E-2,7.171630859E-4,2.244949341E-3
9.935802767E0,-6.385117769E-3,6.978772581E-4,-3.712654114E-3
9.941020944E0,-3.927052021E-4,1.849536598E-2,-6.057739258E-3
9.946062298E0,-5.010426044E-3,-3.025852144E-3,-1.550674438E-2
9.951103652E0,6.960675120E-3,-2.206809819E-2,1.787948608E-2
9.956144954E0,3.654515743E-2,6.967820227E-4,-2.740573883E-2
9.961186309E0,-1.243163645E-2,1.136919484E-2,2.627277374E-2
9.966227611E0,-3.494708240E-2,1.472233608E-2,8.234977722E-3
9.971417142E0,-8.471652865E-3,-1.991121843E-2,-3.221702576E-2
9.976458496E0,-1.307454705E-2,-2.195137739E-2,-8.191108704E-3
9.981499850E0,-9.850263596E-4,1.013527066E-2,-2.475261688E-2
9.986541152E0,3.748446703E-3,-7.751643658E-3,-1.266765594E-2
9.991582507E0,-1.885008812E-2,-2.783915773E-2,3.851222992E-2
9.996623809E0,1.944498718E-2,1.991638541E-2,-5.445289612E-2
1.000181428E1,6.297603250E-3,7.807284594E-3,-2.923965454E-3
1.000685563E1,-3.408694267E-2,1.000270247E-2,-2.665424347E-2
1.001189699E1,-1.355886459E-2,-7.961384952E-3,2.464199066E-2
1.001693829E1,2.337397635E-2,2.659144998E-2,-3.138732910E-2
1.002197964E1,-4.086509347E-3,2.704113722E-3,-2.162361145E-2
1.002702094E1,2.695879340E-2,-9.182427078E-3,-1.550197601E-2
1.003221178E1,-1.481044292E-2,-5.528666079E-3,2.501201630E-2
1.003725313E1,6.744116545E-3,-1.956429332E-3,3.423690796E-3
1.004229449E1,2.693149447E-2,-1.135035232E-2,-3.223609924E-2
1.004733579E1,1.960577071E-2,2.085519955E-2,-3.315544128E-2
1.005237714E1,-1.745608449E-2,8.767057210E-3,3.482151031E-2
1.005741850E1,2.431201935E-2,5.146369338E-3,-1.098632812E-3
1.006260928E1,-2.234597504E-2,1.351163164E-2,2.147674561E-2
1.006765058E1,-1.986157894E-2,1.354016364E-3,4.386329651E-2
1.007269199E1,1.229535043E-2,4.163836315E-2,-3.489589691E-2
1.007773329E1,-2.035140991E-3,2.111345530E-3,-1.347541809E-3
1.008277464E1,6.296560168E-3,2.216956764E-2,-1.083946228E-2
